workerid,proliferate.condition,internal_node_id,response,response_0,response_1,response_2,response_3,response_4,response_5,response_6,response_7,response_8,rt,stimulus,success,target_image_0,target_image_1,target_image_2,target_image_3,target_image_4,target_image_5,target_image_6,target_image_7,target_image_8,time_elapsed,trial_index,trial_type,error,scale_value
47,Condition 1,0.0-5.0-0.0,,0,0,0,0,0,0,0,4,6,23423,"<div><img src=""./visual stimuli-exp/temperature/visualized_temperature_context/visualized_scalding.png"" height = ""270""></div><p style=""margin: 8px 0px;"">Which thermometer do you think is showing the temperature of the water in the cup? Use the ""+"" and ""&ndash;"" buttons to distribute 10 coins across the likely thermometers.</p>",,./visual stimuli-exp/temperature/adjusted_temperature/10.png,./visual stimuli-exp/temperature/adjusted_temperature/20.png,./visual stimuli-exp/temperature/adjusted_temperature/30.png,./visual stimuli-exp/temperature/adjusted_temperature/40.png,./visual stimuli-exp/temperature/adjusted_temperature/50.png,./visual stimuli-exp/temperature/adjusted_temperature/60.png,./visual stimuli-exp/temperature/adjusted_temperature/70.png,./visual stimuli-exp/temperature/adjusted_temperature/80.png,./visual stimuli-exp/temperature/adjusted_temperature/90.png,68722,5,html-coin-betting-response,,scalding
47,Condition 1,0.0-5.0-0.1,,0,0,0,0,3,7,0,0,0,9998,"<div><img src=""./visual stimuli-exp/temperature/visualized_temperature_context/visualized_hot.png"" height = ""270""></div><p style=""margin: 8px 0px;"">Which thermometer do you think is showing the temperature of the water in the cup? Use the ""+"" and ""&ndash;"" buttons to distribute 10 coins across the likely thermometers.</p>",,./visual stimuli-exp/temperature/adjusted_temperature/10.png,./visual stimuli-exp/temperature/adjusted_temperature/20.png,./visual stimuli-exp/temperature/adjusted_temperature/30.png,./visual stimuli-exp/temperature/adjusted_temperature/40.png,./visual stimuli-exp/temperature/adjusted_temperature/50.png,./visual stimuli-exp/temperature/adjusted_temperature/60.png,./visual stimuli-exp/temperature/adjusted_temperature/70.png,./visual stimuli-exp/temperature/adjusted_temperature/80.png,./visual stimuli-exp/temperature/adjusted_temperature/90.png,78722,6,html-coin-betting-response,,hot
47,Condition 1,0.0-5.0-0.2,,0,0,0,7,3,0,0,0,0,9650,"<div><img src=""./visual stimuli-exp/temperature/visualized_temperature_context/visualized_warm.png"" height = ""270""></div><p style=""margin: 8px 0px;"">Which thermometer do you think is showing the temperature of the water in the cup? Use the ""+"" and ""&ndash;"" buttons to distribute 10 coins across the likely thermometers.</p>",,./visual stimuli-exp/temperature/adjusted_temperature/10.png,./visual stimuli-exp/temperature/adjusted_temperature/20.png,./visual stimuli-exp/temperature/adjusted_temperature/30.png,./visual stimuli-exp/temperature/adjusted_temperature/40.png,./visual stimuli-exp/temperature/adjusted_temperature/50.png,./visual stimuli-exp/temperature/adjusted_temperature/60.png,./visual stimuli-exp/temperature/adjusted_temperature/70.png,./visual stimuli-exp/temperature/adjusted_temperature/80.png,./visual stimuli-exp/temperature/adjusted_temperature/90.png,88374,7,html-coin-betting-response,,warm
47,Condition 1,0.0-5.0-0.3,,0,0,0,0,0,0,0,3,7,5468,"<div><img src=""./visual stimuli-exp/temperature/visualized_temperature_context/visualized_scalding.png"" height = ""270""></div><p style=""margin: 8px 0px;"">Which thermometer do you think is showing the temperature of the water in the cup? Use the ""+"" and ""&ndash;"" buttons to distribute 10 coins across the likely thermometers.</p>",,./visual stimuli-exp/temperature/adjusted_temperature/10.png,./visual stimuli-exp/temperature/adjusted_temperature/20.png,./visual stimuli-exp/temperature/adjusted_temperature/30.png,./visual stimuli-exp/temperature/adjusted_temperature/40.png,./visual stimuli-exp/temperature/adjusted_temperature/50.png,./visual stimuli-exp/temperature/adjusted_temperature/60.png,./visual stimuli-exp/temperature/adjusted_temperature/70.png,./visual stimuli-exp/temperature/adjusted_temperature/80.png,./visual stimuli-exp/temperature/adjusted_temperature/90.png,93843,8,html-coin-betting-response,,scalding
47,Condition 1,0.0-5.0-0.4,,0,0,0,0,2,4,4,0,0,10763,"<div><img src=""./visual stimuli-exp/temperature/visualized_temperature_context/visualized_hot.png"" height = ""270""></div><p style=""margin: 8px 0px;"">Which thermometer do you think is showing the temperature of the water in the cup? Use the ""+"" and ""&ndash;"" buttons to distribute 10 coins across the likely thermometers.</p>",,./visual stimuli-exp/temperature/adjusted_temperature/10.png,./visual stimuli-exp/temperature/adjusted_temperature/20.png,./visual stimuli-exp/temperature/adjusted_temperature/30.png,./visual stimuli-exp/temperature/adjusted_temperature/40.png,./visual stimuli-exp/temperature/adjusted_temperature/50.png,./visual stimuli-exp/temperature/adjusted_temperature/60.png,./visual stimuli-exp/temperature/adjusted_temperature/70.png,./visual stimuli-exp/temperature/adjusted_temperature/80.png,./visual stimuli-exp/temperature/adjusted_temperature/90.png,104608,9,html-coin-betting-response,,hot
47,Condition 1,0.0-5.0-0.5,,0,0,5,4,1,0,0,0,0,11343,"<div><img src=""./visual stimuli-exp/temperature/visualized_temperature_context/visualized_warm.png"" height = ""270""></div><p style=""margin: 8px 0px;"">Which thermometer do you think is showing the temperature of the water in the cup? Use the ""+"" and ""&ndash;"" buttons to distribute 10 coins across the likely thermometers.</p>",,./visual stimuli-exp/temperature/adjusted_temperature/10.png,./visual stimuli-exp/temperature/adjusted_temperature/20.png,./visual stimuli-exp/temperature/adjusted_temperature/30.png,./visual stimuli-exp/temperature/adjusted_temperature/40.png,./visual stimuli-exp/temperature/adjusted_temperature/50.png,./visual stimuli-exp/temperature/adjusted_temperature/60.png,./visual stimuli-exp/temperature/adjusted_temperature/70.png,./visual stimuli-exp/temperature/adjusted_temperature/80.png,./visual stimuli-exp/temperature/adjusted_temperature/90.png,115953,10,html-coin-betting-response,,warm
47,Condition 1,0.0-7.0-0.0,,0,0,0,1,4,5,0,0,0,10150,"<div><img src=""./visual stimuli-exp/grades/visualized_grades_context/visualized_good.png"" height = ""330""></div><p style=""margin: 8px 0px;"">Which examination sheet do you think is on the desk? Use the ""+"" and ""&ndash;"" buttons to distribute 10 coins across the likely examination sheets.</p>",,./visual stimuli-exp/grades/adjusted_grades/30_wrong.png,./visual stimuli-exp/grades/adjusted_grades/13_wrong.png,./visual stimuli-exp/grades/adjusted_grades/11_wrong.png,./visual stimuli-exp/grades/adjusted_grades/9_wrong.png,./visual stimuli-exp/grades/adjusted_grades/7_wrong.png,./visual stimuli-exp/grades/adjusted_grades/5_wrong.png,./visual stimuli-exp/grades/adjusted_grades/3_wrong.png,./visual stimuli-exp/grades/adjusted_grades/1_wrong.png,./visual stimuli-exp/grades/adjusted_grades/0_wrong.png,131820,12,html-coin-betting-response,,good
47,Condition 1,0.0-7.0-0.1,,0,0,0,0,0,0,0,0,10,5918,"<div><img src=""./visual stimuli-exp/grades/visualized_grades_context/visualized_perfect.png"" height = ""330""></div><p style=""margin: 8px 0px;"">Which examination sheet do you think is on the desk? Use the ""+"" and ""&ndash;"" buttons to distribute 10 coins across the likely examination sheets.</p>",,./visual stimuli-exp/grades/adjusted_grades/30_wrong.png,./visual stimuli-exp/grades/adjusted_grades/13_wrong.png,./visual stimuli-exp/grades/adjusted_grades/11_wrong.png,./visual stimuli-exp/grades/adjusted_grades/9_wrong.png,./visual stimuli-exp/grades/adjusted_grades/7_wrong.png,./visual stimuli-exp/grades/adjusted_grades/5_wrong.png,./visual stimuli-exp/grades/adjusted_grades/3_wrong.png,./visual stimuli-exp/grades/adjusted_grades/1_wrong.png,./visual stimuli-exp/grades/adjusted_grades/0_wrong.png,137740,13,html-coin-betting-response,,perfect
47,Condition 1,0.0-7.0-0.2,,0,0,0,0,0,0,5,5,0,5321,"<div><img src=""./visual stimuli-exp/grades/visualized_grades_context/visualized_excellent.png"" height = ""330""></div><p style=""margin: 8px 0px;"">Which examination sheet do you think is on the desk? Use the ""+"" and ""&ndash;"" buttons to distribute 10 coins across the likely examination sheets.</p>",,./visual stimuli-exp/grades/adjusted_grades/30_wrong.png,./visual stimuli-exp/grades/adjusted_grades/13_wrong.png,./visual stimuli-exp/grades/adjusted_grades/11_wrong.png,./visual stimuli-exp/grades/adjusted_grades/9_wrong.png,./visual stimuli-exp/grades/adjusted_grades/7_wrong.png,./visual stimuli-exp/grades/adjusted_grades/5_wrong.png,./visual stimuli-exp/grades/adjusted_grades/3_wrong.png,./visual stimuli-exp/grades/adjusted_grades/1_wrong.png,./visual stimuli-exp/grades/adjusted_grades/0_wrong.png,143062,14,html-coin-betting-response,,excellent
47,Condition 1,0.0-7.0-0.3,,0,0,0,0,0,0,0,0,10,8697,"<div><img src=""./visual stimuli-exp/grades/visualized_grades_context/visualized_perfect.png"" height = ""330""></div><p style=""margin: 8px 0px;"">Which examination sheet do you think is on the desk? Use the ""+"" and ""&ndash;"" buttons to distribute 10 coins across the likely examination sheets.</p>",,./visual stimuli-exp/grades/adjusted_grades/30_wrong.png,./visual stimuli-exp/grades/adjusted_grades/13_wrong.png,./visual stimuli-exp/grades/adjusted_grades/11_wrong.png,./visual stimuli-exp/grades/adjusted_grades/9_wrong.png,./visual stimuli-exp/grades/adjusted_grades/7_wrong.png,./visual stimuli-exp/grades/adjusted_grades/5_wrong.png,./visual stimuli-exp/grades/adjusted_grades/3_wrong.png,./visual stimuli-exp/grades/adjusted_grades/1_wrong.png,./visual stimuli-exp/grades/adjusted_grades/0_wrong.png,151759,15,html-coin-betting-response,,perfect
47,Condition 1,0.0-7.0-0.4,,0,0,0,0,0,0,4,6,0,6738,"<div><img src=""./visual stimuli-exp/grades/visualized_grades_context/visualized_excellent.png"" height = ""330""></div><p style=""margin: 8px 0px;"">Which examination sheet do you think is on the desk? Use the ""+"" and ""&ndash;"" buttons to distribute 10 coins across the likely examination sheets.</p>",,./visual stimuli-exp/grades/adjusted_grades/30_wrong.png,./visual stimuli-exp/grades/adjusted_grades/13_wrong.png,./visual stimuli-exp/grades/adjusted_grades/11_wrong.png,./visual stimuli-exp/grades/adjusted_grades/9_wrong.png,./visual stimuli-exp/grades/adjusted_grades/7_wrong.png,./visual stimuli-exp/grades/adjusted_grades/5_wrong.png,./visual stimuli-exp/grades/adjusted_grades/3_wrong.png,./visual stimuli-exp/grades/adjusted_grades/1_wrong.png,./visual stimuli-exp/grades/adjusted_grades/0_wrong.png,158499,16,html-coin-betting-response,,excellent
47,Condition 1,0.0-7.0-0.5,,0,0,0,0,5,5,0,0,0,5785,"<div><img src=""./visual stimuli-exp/grades/visualized_grades_context/visualized_good.png"" height = ""330""></div><p style=""margin: 8px 0px;"">Which examination sheet do you think is on the desk? Use the ""+"" and ""&ndash;"" buttons to distribute 10 coins across the likely examination sheets.</p>",,./visual stimuli-exp/grades/adjusted_grades/30_wrong.png,./visual stimuli-exp/grades/adjusted_grades/13_wrong.png,./visual stimuli-exp/grades/adjusted_grades/11_wrong.png,./visual stimuli-exp/grades/adjusted_grades/9_wrong.png,./visual stimuli-exp/grades/adjusted_grades/7_wrong.png,./visual stimuli-exp/grades/adjusted_grades/5_wrong.png,./visual stimuli-exp/grades/adjusted_grades/3_wrong.png,./visual stimuli-exp/grades/adjusted_grades/1_wrong.png,./visual stimuli-exp/grades/adjusted_grades/0_wrong.png,164285,17,html-coin-betting-response,,good
47,Condition 1,0.0-9.0-0.0,,0,0,0,0,0,0,0,4,6,9347,"<div><img src=""./visual stimuli-exp/clean/visualized_cleaness_context/visualized_clean.png"" height = ""310""></div><p style=""margin: 8px 0px;"">Which window do you think the man is looking at? Use the ""+"" and ""&ndash;"" buttons to distribute 10 coins across the likely windows.</p>",,./visual stimuli-exp/clean/adjusted_cleaness/100-dirty.png,./visual stimuli-exp/clean/adjusted_cleaness/60-dirty-with-spots.png,./visual stimuli-exp/clean/adjusted_cleaness/45-dirty-with-spots.png,./visual stimuli-exp/clean/adjusted_cleaness/30-clean.png,./visual stimuli-exp/clean/adjusted_cleaness/15-clean.png,./visual stimuli-exp/clean/adjusted_cleaness/0-clean-spotless.png,./visual stimuli-exp/clean/adjusted_cleaness/0-spotless.png,./visual stimuli-exp/clean/adjusted_cleaness/0-spotless-light-2.png,./visual stimuli-exp/clean/adjusted_cleaness/0-spotless-light-4.png,192695,19,html-coin-betting-response,,clean
47,Condition 1,0.0-9.0-0.1,,0,0,0,0,5,5,0,0,0,8399,"<div><img src=""./visual stimuli-exp/clean/visualized_cleaness_context/visualized_cleanish.png"" height = ""310""></div><p style=""margin: 8px 0px;"">Which window do you think the man is looking at? Use the ""+"" and ""&ndash;"" buttons to distribute 10 coins across the likely windows.</p>",,./visual stimuli-exp/clean/adjusted_cleaness/100-dirty.png,./visual stimuli-exp/clean/adjusted_cleaness/60-dirty-with-spots.png,./visual stimuli-exp/clean/adjusted_cleaness/45-dirty-with-spots.png,./visual stimuli-exp/clean/adjusted_cleaness/30-clean.png,./visual stimuli-exp/clean/adjusted_cleaness/15-clean.png,./visual stimuli-exp/clean/adjusted_cleaness/0-clean-spotless.png,./visual stimuli-exp/clean/adjusted_cleaness/0-spotless.png,./visual stimuli-exp/clean/adjusted_cleaness/0-spotless-light-2.png,./visual stimuli-exp/clean/adjusted_cleaness/0-spotless-light-4.png,201096,20,html-coin-betting-response,,cleanish
47,Condition 1,0.0-9.0-0.2,,0,0,0,0,0,0,0,0,10,5455,"<div><img src=""./visual stimuli-exp/clean/visualized_cleaness_context/visualized_spotless.png"" height = ""310""></div><p style=""margin: 8px 0px;"">Which window do you think the man is looking at? Use the ""+"" and ""&ndash;"" buttons to distribute 10 coins across the likely windows.</p>",,./visual stimuli-exp/clean/adjusted_cleaness/100-dirty.png,./visual stimuli-exp/clean/adjusted_cleaness/60-dirty-with-spots.png,./visual stimuli-exp/clean/adjusted_cleaness/45-dirty-with-spots.png,./visual stimuli-exp/clean/adjusted_cleaness/30-clean.png,./visual stimuli-exp/clean/adjusted_cleaness/15-clean.png,./visual stimuli-exp/clean/adjusted_cleaness/0-clean-spotless.png,./visual stimuli-exp/clean/adjusted_cleaness/0-spotless.png,./visual stimuli-exp/clean/adjusted_cleaness/0-spotless-light-2.png,./visual stimuli-exp/clean/adjusted_cleaness/0-spotless-light-4.png,206552,21,html-coin-betting-response,,spotless
47,Condition 1,0.0-9.0-0.3,,0,0,0,0,0,0,0,0,10,5647,"<div><img src=""./visual stimuli-exp/clean/visualized_cleaness_context/visualized_spotless.png"" height = ""310""></div><p style=""margin: 8px 0px;"">Which window do you think the man is looking at? Use the ""+"" and ""&ndash;"" buttons to distribute 10 coins across the likely windows.</p>",,./visual stimuli-exp/clean/adjusted_cleaness/100-dirty.png,./visual stimuli-exp/clean/adjusted_cleaness/60-dirty-with-spots.png,./visual stimuli-exp/clean/adjusted_cleaness/45-dirty-with-spots.png,./visual stimuli-exp/clean/adjusted_cleaness/30-clean.png,./visual stimuli-exp/clean/adjusted_cleaness/15-clean.png,./visual stimuli-exp/clean/adjusted_cleaness/0-clean-spotless.png,./visual stimuli-exp/clean/adjusted_cleaness/0-spotless.png,./visual stimuli-exp/clean/adjusted_cleaness/0-spotless-light-2.png,./visual stimuli-exp/clean/adjusted_cleaness/0-spotless-light-4.png,212201,22,html-coin-betting-response,,spotless
47,Condition 1,0.0-9.0-0.4,,0,0,0,0,0,5,5,0,0,4271,"<div><img src=""./visual stimuli-exp/clean/visualized_cleaness_context/visualized_clean.png"" height = ""310""></div><p style=""margin: 8px 0px;"">Which window do you think the man is looking at? Use the ""+"" and ""&ndash;"" buttons to distribute 10 coins across the likely windows.</p>",,./visual stimuli-exp/clean/adjusted_cleaness/100-dirty.png,./visual stimuli-exp/clean/adjusted_cleaness/60-dirty-with-spots.png,./visual stimuli-exp/clean/adjusted_cleaness/45-dirty-with-spots.png,./visual stimuli-exp/clean/adjusted_cleaness/30-clean.png,./visual stimuli-exp/clean/adjusted_cleaness/15-clean.png,./visual stimuli-exp/clean/adjusted_cleaness/0-clean-spotless.png,./visual stimuli-exp/clean/adjusted_cleaness/0-spotless.png,./visual stimuli-exp/clean/adjusted_cleaness/0-spotless-light-2.png,./visual stimuli-exp/clean/adjusted_cleaness/0-spotless-light-4.png,216473,23,html-coin-betting-response,,clean
47,Condition 1,0.0-9.0-0.5,,0,0,0,5,5,0,0,0,0,6469,"<div><img src=""./visual stimuli-exp/clean/visualized_cleaness_context/visualized_cleanish.png"" height = ""310""></div><p style=""margin: 8px 0px;"">Which window do you think the man is looking at? Use the ""+"" and ""&ndash;"" buttons to distribute 10 coins across the likely windows.</p>",,./visual stimuli-exp/clean/adjusted_cleaness/100-dirty.png,./visual stimuli-exp/clean/adjusted_cleaness/60-dirty-with-spots.png,./visual stimuli-exp/clean/adjusted_cleaness/45-dirty-with-spots.png,./visual stimuli-exp/clean/adjusted_cleaness/30-clean.png,./visual stimuli-exp/clean/adjusted_cleaness/15-clean.png,./visual stimuli-exp/clean/adjusted_cleaness/0-clean-spotless.png,./visual stimuli-exp/clean/adjusted_cleaness/0-spotless.png,./visual stimuli-exp/clean/adjusted_cleaness/0-spotless-light-2.png,./visual stimuli-exp/clean/adjusted_cleaness/0-spotless-light-4.png,222943,24,html-coin-betting-response,,cleanish
54,Condition 1,0.0-5.0-0.0,,0,0,0,4,4,2,0,0,0,73596,"<div><img src=""./visual stimuli-exp/temperature/visualized_temperature_context/visualized_warm.png"" height = ""270""></div><p style=""margin: 8px 0px;"">Which thermometer do you think is showing the temperature of the water in the cup? Use the ""+"" and ""&ndash;"" buttons to distribute 10 coins across the likely thermometers.</p>",,./visual stimuli-exp/temperature/adjusted_temperature/10.png,./visual stimuli-exp/temperature/adjusted_temperature/20.png,./visual stimuli-exp/temperature/adjusted_temperature/30.png,./visual stimuli-exp/temperature/adjusted_temperature/40.png,./visual stimuli-exp/temperature/adjusted_temperature/50.png,./visual stimuli-exp/temperature/adjusted_temperature/60.png,./visual stimuli-exp/temperature/adjusted_temperature/70.png,./visual stimuli-exp/temperature/adjusted_temperature/80.png,./visual stimuli-exp/temperature/adjusted_temperature/90.png,130027,5,html-coin-betting-response,,warm
54,Condition 1,0.0-5.0-0.1,,0,0,0,0,3,3,3,1,0,33291,"<div><img src=""./visual stimuli-exp/temperature/visualized_temperature_context/visualized_hot.png"" height = ""270""></div><p style=""margin: 8px 0px;"">Which thermometer do you think is showing the temperature of the water in the cup? Use the ""+"" and ""&ndash;"" buttons to distribute 10 coins across the likely thermometers.</p>",,./visual stimuli-exp/temperature/adjusted_temperature/10.png,./visual stimuli-exp/temperature/adjusted_temperature/20.png,./visual stimuli-exp/temperature/adjusted_temperature/30.png,./visual stimuli-exp/temperature/adjusted_temperature/40.png,./visual stimuli-exp/temperature/adjusted_temperature/50.png,./visual stimuli-exp/temperature/adjusted_temperature/60.png,./visual stimuli-exp/temperature/adjusted_temperature/70.png,./visual stimuli-exp/temperature/adjusted_temperature/80.png,./visual stimuli-exp/temperature/adjusted_temperature/90.png,163323,6,html-coin-betting-response,,hot
54,Condition 1,0.0-5.0-0.2,,0,0,0,0,0,0,4,4,2,25997,"<div><img src=""./visual stimuli-exp/temperature/visualized_temperature_context/visualized_scalding.png"" height = ""270""></div><p style=""margin: 8px 0px;"">Which thermometer do you think is showing the temperature of the water in the cup? Use the ""+"" and ""&ndash;"" buttons to distribute 10 coins across the likely thermometers.</p>",,./visual stimuli-exp/temperature/adjusted_temperature/10.png,./visual stimuli-exp/temperature/adjusted_temperature/20.png,./visual stimuli-exp/temperature/adjusted_temperature/30.png,./visual stimuli-exp/temperature/adjusted_temperature/40.png,./visual stimuli-exp/temperature/adjusted_temperature/50.png,./visual stimuli-exp/temperature/adjusted_temperature/60.png,./visual stimuli-exp/temperature/adjusted_temperature/70.png,./visual stimuli-exp/temperature/adjusted_temperature/80.png,./visual stimuli-exp/temperature/adjusted_temperature/90.png,189323,7,html-coin-betting-response,,scalding
54,Condition 1,0.0-5.0-0.3,,0,0,0,1,3,4,2,0,0,24867,"<div><img src=""./visual stimuli-exp/temperature/visualized_temperature_context/visualized_hot.png"" height = ""270""></div><p style=""margin: 8px 0px;"">Which thermometer do you think is showing the temperature of the water in the cup? Use the ""+"" and ""&ndash;"" buttons to distribute 10 coins across the likely thermometers.</p>",,./visual stimuli-exp/temperature/adjusted_temperature/10.png,./visual stimuli-exp/temperature/adjusted_temperature/20.png,./visual stimuli-exp/temperature/adjusted_temperature/30.png,./visual stimuli-exp/temperature/adjusted_temperature/40.png,./visual stimuli-exp/temperature/adjusted_temperature/50.png,./visual stimuli-exp/temperature/adjusted_temperature/60.png,./visual stimuli-exp/temperature/adjusted_temperature/70.png,./visual stimuli-exp/temperature/adjusted_temperature/80.png,./visual stimuli-exp/temperature/adjusted_temperature/90.png,214196,8,html-coin-betting-response,,hot
54,Condition 1,0.0-5.0-0.4,,0,0,0,0,0,1,3,4,2,20788,"<div><img src=""./visual stimuli-exp/temperature/visualized_temperature_context/visualized_scalding.png"" height = ""270""></div><p style=""margin: 8px 0px;"">Which thermometer do you think is showing the temperature of the water in the cup? Use the ""+"" and ""&ndash;"" buttons to distribute 10 coins across the likely thermometers.</p>",,./visual stimuli-exp/temperature/adjusted_temperature/10.png,./visual stimuli-exp/temperature/adjusted_temperature/20.png,./visual stimuli-exp/temperature/adjusted_temperature/30.png,./visual stimuli-exp/temperature/adjusted_temperature/40.png,./visual stimuli-exp/temperature/adjusted_temperature/50.png,./visual stimuli-exp/temperature/adjusted_temperature/60.png,./visual stimuli-exp/temperature/adjusted_temperature/70.png,./visual stimuli-exp/temperature/adjusted_temperature/80.png,./visual stimuli-exp/temperature/adjusted_temperature/90.png,234987,9,html-coin-betting-response,,scalding
54,Condition 1,0.0-5.0-0.5,,0,0,0,2,7,1,0,0,0,19957,"<div><img src=""./visual stimuli-exp/temperature/visualized_temperature_context/visualized_warm.png"" height = ""270""></div><p style=""margin: 8px 0px;"">Which thermometer do you think is showing the temperature of the water in the cup? Use the ""+"" and ""&ndash;"" buttons to distribute 10 coins across the likely thermometers.</p>",,./visual stimuli-exp/temperature/adjusted_temperature/10.png,./visual stimuli-exp/temperature/adjusted_temperature/20.png,./visual stimuli-exp/temperature/adjusted_temperature/30.png,./visual stimuli-exp/temperature/adjusted_temperature/40.png,./visual stimuli-exp/temperature/adjusted_temperature/50.png,./visual stimuli-exp/temperature/adjusted_temperature/60.png,./visual stimuli-exp/temperature/adjusted_temperature/70.png,./visual stimuli-exp/temperature/adjusted_temperature/80.png,./visual stimuli-exp/temperature/adjusted_temperature/90.png,254947,10,html-coin-betting-response,,warm
54,Condition 1,0.0-7.0-0.0,,0,0,0,0,0,0,0,0,10,23477,"<div><img src=""./visual stimuli-exp/grades/visualized_grades_context/visualized_perfect.png"" height = ""330""></div><p style=""margin: 8px 0px;"">Which examination sheet do you think is on the desk? Use the ""+"" and ""&ndash;"" buttons to distribute 10 coins across the likely examination sheets.</p>",,./visual stimuli-exp/grades/adjusted_grades/30_wrong.png,./visual stimuli-exp/grades/adjusted_grades/13_wrong.png,./visual stimuli-exp/grades/adjusted_grades/11_wrong.png,./visual stimuli-exp/grades/adjusted_grades/9_wrong.png,./visual stimuli-exp/grades/adjusted_grades/7_wrong.png,./visual stimuli-exp/grades/adjusted_grades/5_wrong.png,./visual stimuli-exp/grades/adjusted_grades/3_wrong.png,./visual stimuli-exp/grades/adjusted_grades/1_wrong.png,./visual stimuli-exp/grades/adjusted_grades/0_wrong.png,300867,12,html-coin-betting-response,,perfect
54,Condition 1,0.0-7.0-0.1,,0,0,0,0,0,0,1,5,4,17516,"<div><img src=""./visual stimuli-exp/grades/visualized_grades_context/visualized_excellent.png"" height = ""330""></div><p style=""margin: 8px 0px;"">Which examination sheet do you think is on the desk? Use the ""+"" and ""&ndash;"" buttons to distribute 10 coins across the likely examination sheets.</p>",,./visual stimuli-exp/grades/adjusted_grades/30_wrong.png,./visual stimuli-exp/grades/adjusted_grades/13_wrong.png,./visual stimuli-exp/grades/adjusted_grades/11_wrong.png,./visual stimuli-exp/grades/adjusted_grades/9_wrong.png,./visual stimuli-exp/grades/adjusted_grades/7_wrong.png,./visual stimuli-exp/grades/adjusted_grades/5_wrong.png,./visual stimuli-exp/grades/adjusted_grades/3_wrong.png,./visual stimuli-exp/grades/adjusted_grades/1_wrong.png,./visual stimuli-exp/grades/adjusted_grades/0_wrong.png,318387,13,html-coin-betting-response,,excellent
54,Condition 1,0.0-7.0-0.2,,0,0,0,0,2,2,5,1,0,23037,"<div><img src=""./visual stimuli-exp/grades/visualized_grades_context/visualized_good.png"" height = ""330""></div><p style=""margin: 8px 0px;"">Which examination sheet do you think is on the desk? Use the ""+"" and ""&ndash;"" buttons to distribute 10 coins across the likely examination sheets.</p>",,./visual stimuli-exp/grades/adjusted_grades/30_wrong.png,./visual stimuli-exp/grades/adjusted_grades/13_wrong.png,./visual stimuli-exp/grades/adjusted_grades/11_wrong.png,./visual stimuli-exp/grades/adjusted_grades/9_wrong.png,./visual stimuli-exp/grades/adjusted_grades/7_wrong.png,./visual stimuli-exp/grades/adjusted_grades/5_wrong.png,./visual stimuli-exp/grades/adjusted_grades/3_wrong.png,./visual stimuli-exp/grades/adjusted_grades/1_wrong.png,./visual stimuli-exp/grades/adjusted_grades/0_wrong.png,341427,14,html-coin-betting-response,,good
54,Condition 1,0.0-7.0-0.3,,0,0,0,0,0,0,0,0,10,10509,"<div><img src=""./visual stimuli-exp/grades/visualized_grades_context/visualized_perfect.png"" height = ""330""></div><p style=""margin: 8px 0px;"">Which examination sheet do you think is on the desk? Use the ""+"" and ""&ndash;"" buttons to distribute 10 coins across the likely examination sheets.</p>",,./visual stimuli-exp/grades/adjusted_grades/30_wrong.png,./visual stimuli-exp/grades/adjusted_grades/13_wrong.png,./visual stimuli-exp/grades/adjusted_grades/11_wrong.png,./visual stimuli-exp/grades/adjusted_grades/9_wrong.png,./visual stimuli-exp/grades/adjusted_grades/7_wrong.png,./visual stimuli-exp/grades/adjusted_grades/5_wrong.png,./visual stimuli-exp/grades/adjusted_grades/3_wrong.png,./visual stimuli-exp/grades/adjusted_grades/1_wrong.png,./visual stimuli-exp/grades/adjusted_grades/0_wrong.png,351939,15,html-coin-betting-response,,perfect
54,Condition 1,0.0-7.0-0.4,,0,0,0,0,0,4,5,1,0,15053,"<div><img src=""./visual stimuli-exp/grades/visualized_grades_context/visualized_good.png"" height = ""330""></div><p style=""margin: 8px 0px;"">Which examination sheet do you think is on the desk? Use the ""+"" and ""&ndash;"" buttons to distribute 10 coins across the likely examination sheets.</p>",,./visual stimuli-exp/grades/adjusted_grades/30_wrong.png,./visual stimuli-exp/grades/adjusted_grades/13_wrong.png,./visual stimuli-exp/grades/adjusted_grades/11_wrong.png,./visual stimuli-exp/grades/adjusted_grades/9_wrong.png,./visual stimuli-exp/grades/adjusted_grades/7_wrong.png,./visual stimuli-exp/grades/adjusted_grades/5_wrong.png,./visual stimuli-exp/grades/adjusted_grades/3_wrong.png,./visual stimuli-exp/grades/adjusted_grades/1_wrong.png,./visual stimuli-exp/grades/adjusted_grades/0_wrong.png,366995,16,html-coin-betting-response,,good
54,Condition 1,0.0-7.0-0.5,,0,0,0,0,0,0,0,4,6,18542,"<div><img src=""./visual stimuli-exp/grades/visualized_grades_context/visualized_excellent.png"" height = ""330""></div><p style=""margin: 8px 0px;"">Which examination sheet do you think is on the desk? Use the ""+"" and ""&ndash;"" buttons to distribute 10 coins across the likely examination sheets.</p>",,./visual stimuli-exp/grades/adjusted_grades/30_wrong.png,./visual stimuli-exp/grades/adjusted_grades/13_wrong.png,./visual stimuli-exp/grades/adjusted_grades/11_wrong.png,./visual stimuli-exp/grades/adjusted_grades/9_wrong.png,./visual stimuli-exp/grades/adjusted_grades/7_wrong.png,./visual stimuli-exp/grades/adjusted_grades/5_wrong.png,./visual stimuli-exp/grades/adjusted_grades/3_wrong.png,./visual stimuli-exp/grades/adjusted_grades/1_wrong.png,./visual stimuli-exp/grades/adjusted_grades/0_wrong.png,385540,17,html-coin-betting-response,,excellent
54,Condition 1,0.0-9.0-0.0,,0,0,0,0,0,0,0,0,10,13621,"<div><img src=""./visual stimuli-exp/clean/visualized_cleaness_context/visualized_spotless.png"" height = ""310""></div><p style=""margin: 8px 0px;"">Which window do you think the man is looking at? Use the ""+"" and ""&ndash;"" buttons to distribute 10 coins across the likely windows.</p>",,./visual stimuli-exp/clean/adjusted_cleaness/100-dirty.png,./visual stimuli-exp/clean/adjusted_cleaness/60-dirty-with-spots.png,./visual stimuli-exp/clean/adjusted_cleaness/45-dirty-with-spots.png,./visual stimuli-exp/clean/adjusted_cleaness/30-clean.png,./visual stimuli-exp/clean/adjusted_cleaness/15-clean.png,./visual stimuli-exp/clean/adjusted_cleaness/0-clean-spotless.png,./visual stimuli-exp/clean/adjusted_cleaness/0-spotless.png,./visual stimuli-exp/clean/adjusted_cleaness/0-spotless-light-2.png,./visual stimuli-exp/clean/adjusted_cleaness/0-spotless-light-4.png,419331,19,html-coin-betting-response,,spotless
54,Condition 1,0.0-9.0-0.1,,0,0,0,0,0,2,4,3,1,25173,"<div><img src=""./visual stimuli-exp/clean/visualized_cleaness_context/visualized_clean.png"" height = ""310""></div><p style=""margin: 8px 0px;"">Which window do you think the man is looking at? Use the ""+"" and ""&ndash;"" buttons to distribute 10 coins across the likely windows.</p>",,./visual stimuli-exp/clean/adjusted_cleaness/100-dirty.png,./visual stimuli-exp/clean/adjusted_cleaness/60-dirty-with-spots.png,./visual stimuli-exp/clean/adjusted_cleaness/45-dirty-with-spots.png,./visual stimuli-exp/clean/adjusted_cleaness/30-clean.png,./visual stimuli-exp/clean/adjusted_cleaness/15-clean.png,./visual stimuli-exp/clean/adjusted_cleaness/0-clean-spotless.png,./visual stimuli-exp/clean/adjusted_cleaness/0-spotless.png,./visual stimuli-exp/clean/adjusted_cleaness/0-spotless-light-2.png,./visual stimuli-exp/clean/adjusted_cleaness/0-spotless-light-4.png,444507,20,html-coin-betting-response,,clean
54,Condition 1,0.0-9.0-0.2,,0,0,0,2,6,2,0,0,0,16277,"<div><img src=""./visual stimuli-exp/clean/visualized_cleaness_context/visualized_cleanish.png"" height = ""310""></div><p style=""margin: 8px 0px;"">Which window do you think the man is looking at? Use the ""+"" and ""&ndash;"" buttons to distribute 10 coins across the likely windows.</p>",,./visual stimuli-exp/clean/adjusted_cleaness/100-dirty.png,./visual stimuli-exp/clean/adjusted_cleaness/60-dirty-with-spots.png,./visual stimuli-exp/clean/adjusted_cleaness/45-dirty-with-spots.png,./visual stimuli-exp/clean/adjusted_cleaness/30-clean.png,./visual stimuli-exp/clean/adjusted_cleaness/15-clean.png,./visual stimuli-exp/clean/adjusted_cleaness/0-clean-spotless.png,./visual stimuli-exp/clean/adjusted_cleaness/0-spotless.png,./visual stimuli-exp/clean/adjusted_cleaness/0-spotless-light-2.png,./visual stimuli-exp/clean/adjusted_cleaness/0-spotless-light-4.png,460787,21,html-coin-betting-response,,cleanish
54,Condition 1,0.0-9.0-0.3,,0,0,0,0,0,0,6,4,0,19061,"<div><img src=""./visual stimuli-exp/clean/visualized_cleaness_context/visualized_clean.png"" height = ""310""></div><p style=""margin: 8px 0px;"">Which window do you think the man is looking at? Use the ""+"" and ""&ndash;"" buttons to distribute 10 coins across the likely windows.</p>",,./visual stimuli-exp/clean/adjusted_cleaness/100-dirty.png,./visual stimuli-exp/clean/adjusted_cleaness/60-dirty-with-spots.png,./visual stimuli-exp/clean/adjusted_cleaness/45-dirty-with-spots.png,./visual stimuli-exp/clean/adjusted_cleaness/30-clean.png,./visual stimuli-exp/clean/adjusted_cleaness/15-clean.png,./visual stimuli-exp/clean/adjusted_cleaness/0-clean-spotless.png,./visual stimuli-exp/clean/adjusted_cleaness/0-spotless.png,./visual stimuli-exp/clean/adjusted_cleaness/0-spotless-light-2.png,./visual stimuli-exp/clean/adjusted_cleaness/0-spotless-light-4.png,479852,22,html-coin-betting-response,,clean
54,Condition 1,0.0-9.0-0.4,,0,0,0,0,0,0,0,0,10,6708,"<div><img src=""./visual stimuli-exp/clean/visualized_cleaness_context/visualized_spotless.png"" height = ""310""></div><p style=""margin: 8px 0px;"">Which window do you think the man is looking at? Use the ""+"" and ""&ndash;"" buttons to distribute 10 coins across the likely windows.</p>",,./visual stimuli-exp/clean/adjusted_cleaness/100-dirty.png,./visual stimuli-exp/clean/adjusted_cleaness/60-dirty-with-spots.png,./visual stimuli-exp/clean/adjusted_cleaness/45-dirty-with-spots.png,./visual stimuli-exp/clean/adjusted_cleaness/30-clean.png,./visual stimuli-exp/clean/adjusted_cleaness/15-clean.png,./visual stimuli-exp/clean/adjusted_cleaness/0-clean-spotless.png,./visual stimuli-exp/clean/adjusted_cleaness/0-spotless.png,./visual stimuli-exp/clean/adjusted_cleaness/0-spotless-light-2.png,./visual stimuli-exp/clean/adjusted_cleaness/0-spotless-light-4.png,486564,23,html-coin-betting-response,,spotless
54,Condition 1,0.0-9.0-0.5,,0,0,0,0,0,6,4,0,0,13244,"<div><img src=""./visual stimuli-exp/clean/visualized_cleaness_context/visualized_cleanish.png"" height = ""310""></div><p style=""margin: 8px 0px;"">Which window do you think the man is looking at? Use the ""+"" and ""&ndash;"" buttons to distribute 10 coins across the likely windows.</p>",,./visual stimuli-exp/clean/adjusted_cleaness/100-dirty.png,./visual stimuli-exp/clean/adjusted_cleaness/60-dirty-with-spots.png,./visual stimuli-exp/clean/adjusted_cleaness/45-dirty-with-spots.png,./visual stimuli-exp/clean/adjusted_cleaness/30-clean.png,./visual stimuli-exp/clean/adjusted_cleaness/15-clean.png,./visual stimuli-exp/clean/adjusted_cleaness/0-clean-spotless.png,./visual stimuli-exp/clean/adjusted_cleaness/0-spotless.png,./visual stimuli-exp/clean/adjusted_cleaness/0-spotless-light-2.png,./visual stimuli-exp/clean/adjusted_cleaness/0-spotless-light-4.png,499811,24,html-coin-betting-response,,cleanish
35,Condition 1,0.0-5.0-0.0,,0,0,0,1,5,4,0,0,0,41833,"<div><img src=""./visual stimuli-exp/temperature/visualized_temperature_context/visualized_scalding.png"" height = ""270""></div><p style=""margin: 8px 0px;"">Which thermometer do you think is showing the temperature of the water in the cup? Use the ""+"" and ""&ndash;"" buttons to distribute 10 coins across the likely thermometers.</p>",,./visual stimuli-exp/temperature/adjusted_temperature/10.png,./visual stimuli-exp/temperature/adjusted_temperature/20.png,./visual stimuli-exp/temperature/adjusted_temperature/30.png,./visual stimuli-exp/temperature/adjusted_temperature/40.png,./visual stimuli-exp/temperature/adjusted_temperature/50.png,./visual stimuli-exp/temperature/adjusted_temperature/60.png,./visual stimuli-exp/temperature/adjusted_temperature/70.png,./visual stimuli-exp/temperature/adjusted_temperature/80.png,./visual stimuli-exp/temperature/adjusted_temperature/90.png,184490,5,html-coin-betting-response,,scalding
35,Condition 1,0.0-5.0-0.1,,0,0,0,0,0,0,0,2,8,10094,"<div><img src=""./visual stimuli-exp/temperature/visualized_temperature_context/visualized_hot.png"" height = ""270""></div><p style=""margin: 8px 0px;"">Which thermometer do you think is showing the temperature of the water in the cup? Use the ""+"" and ""&ndash;"" buttons to distribute 10 coins across the likely thermometers.</p>",,./visual stimuli-exp/temperature/adjusted_temperature/10.png,./visual stimuli-exp/temperature/adjusted_temperature/20.png,./visual stimuli-exp/temperature/adjusted_temperature/30.png,./visual stimuli-exp/temperature/adjusted_temperature/40.png,./visual stimuli-exp/temperature/adjusted_temperature/50.png,./visual stimuli-exp/temperature/adjusted_temperature/60.png,./visual stimuli-exp/temperature/adjusted_temperature/70.png,./visual stimuli-exp/temperature/adjusted_temperature/80.png,./visual stimuli-exp/temperature/adjusted_temperature/90.png,194591,6,html-coin-betting-response,,hot
35,Condition 1,0.0-5.0-0.2,,0,0,5,5,0,0,0,0,0,9445,"<div><img src=""./visual stimuli-exp/temperature/visualized_temperature_context/visualized_warm.png"" height = ""270""></div><p style=""margin: 8px 0px;"">Which thermometer do you think is showing the temperature of the water in the cup? Use the ""+"" and ""&ndash;"" buttons to distribute 10 coins across the likely thermometers.</p>",,./visual stimuli-exp/temperature/adjusted_temperature/10.png,./visual stimuli-exp/temperature/adjusted_temperature/20.png,./visual stimuli-exp/temperature/adjusted_temperature/30.png,./visual stimuli-exp/temperature/adjusted_temperature/40.png,./visual stimuli-exp/temperature/adjusted_temperature/50.png,./visual stimuli-exp/temperature/adjusted_temperature/60.png,./visual stimuli-exp/temperature/adjusted_temperature/70.png,./visual stimuli-exp/temperature/adjusted_temperature/80.png,./visual stimuli-exp/temperature/adjusted_temperature/90.png,204040,7,html-coin-betting-response,,warm
35,Condition 1,0.0-5.0-0.3,,0,0,0,10,0,0,0,0,0,6373,"<div><img src=""./visual stimuli-exp/temperature/visualized_temperature_context/visualized_warm.png"" height = ""270""></div><p style=""margin: 8px 0px;"">Which thermometer do you think is showing the temperature of the water in the cup? Use the ""+"" and ""&ndash;"" buttons to distribute 10 coins across the likely thermometers.</p>",,./visual stimuli-exp/temperature/adjusted_temperature/10.png,./visual stimuli-exp/temperature/adjusted_temperature/20.png,./visual stimuli-exp/temperature/adjusted_temperature/30.png,./visual stimuli-exp/temperature/adjusted_temperature/40.png,./visual stimuli-exp/temperature/adjusted_temperature/50.png,./visual stimuli-exp/temperature/adjusted_temperature/60.png,./visual stimuli-exp/temperature/adjusted_temperature/70.png,./visual stimuli-exp/temperature/adjusted_temperature/80.png,./visual stimuli-exp/temperature/adjusted_temperature/90.png,210418,8,html-coin-betting-response,,warm
35,Condition 1,0.0-5.0-0.4,,0,0,0,0,0,0,0,0,10,7505,"<div><img src=""./visual stimuli-exp/temperature/visualized_temperature_context/visualized_hot.png"" height = ""270""></div><p style=""margin: 8px 0px;"">Which thermometer do you think is showing the temperature of the water in the cup? Use the ""+"" and ""&ndash;"" buttons to distribute 10 coins across the likely thermometers.</p>",,./visual stimuli-exp/temperature/adjusted_temperature/10.png,./visual stimuli-exp/temperature/adjusted_temperature/20.png,./visual stimuli-exp/temperature/adjusted_temperature/30.png,./visual stimuli-exp/temperature/adjusted_temperature/40.png,./visual stimuli-exp/temperature/adjusted_temperature/50.png,./visual stimuli-exp/temperature/adjusted_temperature/60.png,./visual stimuli-exp/temperature/adjusted_temperature/70.png,./visual stimuli-exp/temperature/adjusted_temperature/80.png,./visual stimuli-exp/temperature/adjusted_temperature/90.png,217928,9,html-coin-betting-response,,hot
35,Condition 1,0.0-5.0-0.5,,0,0,0,10,0,0,0,0,0,8219,"<div><img src=""./visual stimuli-exp/temperature/visualized_temperature_context/visualized_scalding.png"" height = ""270""></div><p style=""margin: 8px 0px;"">Which thermometer do you think is showing the temperature of the water in the cup? Use the ""+"" and ""&ndash;"" buttons to distribute 10 coins across the likely thermometers.</p>",,./visual stimuli-exp/temperature/adjusted_temperature/10.png,./visual stimuli-exp/temperature/adjusted_temperature/20.png,./visual stimuli-exp/temperature/adjusted_temperature/30.png,./visual stimuli-exp/temperature/adjusted_temperature/40.png,./visual stimuli-exp/temperature/adjusted_temperature/50.png,./visual stimuli-exp/temperature/adjusted_temperature/60.png,./visual stimuli-exp/temperature/adjusted_temperature/70.png,./visual stimuli-exp/temperature/adjusted_temperature/80.png,./visual stimuli-exp/temperature/adjusted_temperature/90.png,226150,10,html-coin-betting-response,,scalding
35,Condition 1,0.0-7.0-0.0,,0,0,0,0,0,10,0,0,0,12131,"<div><img src=""./visual stimuli-exp/grades/visualized_grades_context/visualized_good.png"" height = ""330""></div><p style=""margin: 8px 0px;"">Which examination sheet do you think is on the desk? Use the ""+"" and ""&ndash;"" buttons to distribute 10 coins across the likely examination sheets.</p>",,./visual stimuli-exp/grades/adjusted_grades/30_wrong.png,./visual stimuli-exp/grades/adjusted_grades/13_wrong.png,./visual stimuli-exp/grades/adjusted_grades/11_wrong.png,./visual stimuli-exp/grades/adjusted_grades/9_wrong.png,./visual stimuli-exp/grades/adjusted_grades/7_wrong.png,./visual stimuli-exp/grades/adjusted_grades/5_wrong.png,./visual stimuli-exp/grades/adjusted_grades/3_wrong.png,./visual stimuli-exp/grades/adjusted_grades/1_wrong.png,./visual stimuli-exp/grades/adjusted_grades/0_wrong.png,261656,12,html-coin-betting-response,,good
35,Condition 1,0.0-7.0-0.1,,0,0,0,0,0,0,0,2,8,8022,"<div><img src=""./visual stimuli-exp/grades/visualized_grades_context/visualized_perfect.png"" height = ""330""></div><p style=""margin: 8px 0px;"">Which examination sheet do you think is on the desk? Use the ""+"" and ""&ndash;"" buttons to distribute 10 coins across the likely examination sheets.</p>",,./visual stimuli-exp/grades/adjusted_grades/30_wrong.png,./visual stimuli-exp/grades/adjusted_grades/13_wrong.png,./visual stimuli-exp/grades/adjusted_grades/11_wrong.png,./visual stimuli-exp/grades/adjusted_grades/9_wrong.png,./visual stimuli-exp/grades/adjusted_grades/7_wrong.png,./visual stimuli-exp/grades/adjusted_grades/5_wrong.png,./visual stimuli-exp/grades/adjusted_grades/3_wrong.png,./visual stimuli-exp/grades/adjusted_grades/1_wrong.png,./visual stimuli-exp/grades/adjusted_grades/0_wrong.png,269681,13,html-coin-betting-response,,perfect
35,Condition 1,0.0-7.0-0.2,,0,0,0,0,0,0,3,7,0,7460,"<div><img src=""./visual stimuli-exp/grades/visualized_grades_context/visualized_excellent.png"" height = ""330""></div><p style=""margin: 8px 0px;"">Which examination sheet do you think is on the desk? Use the ""+"" and ""&ndash;"" buttons to distribute 10 coins across the likely examination sheets.</p>",,./visual stimuli-exp/grades/adjusted_grades/30_wrong.png,./visual stimuli-exp/grades/adjusted_grades/13_wrong.png,./visual stimuli-exp/grades/adjusted_grades/11_wrong.png,./visual stimuli-exp/grades/adjusted_grades/9_wrong.png,./visual stimuli-exp/grades/adjusted_grades/7_wrong.png,./visual stimuli-exp/grades/adjusted_grades/5_wrong.png,./visual stimuli-exp/grades/adjusted_grades/3_wrong.png,./visual stimuli-exp/grades/adjusted_grades/1_wrong.png,./visual stimuli-exp/grades/adjusted_grades/0_wrong.png,277145,14,html-coin-betting-response,,excellent
35,Condition 1,0.0-7.0-0.3,,0,0,0,0,0,0,2,8,0,7597,"<div><img src=""./visual stimuli-exp/grades/visualized_grades_context/visualized_excellent.png"" height = ""330""></div><p style=""margin: 8px 0px;"">Which examination sheet do you think is on the desk? Use the ""+"" and ""&ndash;"" buttons to distribute 10 coins across the likely examination sheets.</p>",,./visual stimuli-exp/grades/adjusted_grades/30_wrong.png,./visual stimuli-exp/grades/adjusted_grades/13_wrong.png,./visual stimuli-exp/grades/adjusted_grades/11_wrong.png,./visual stimuli-exp/grades/adjusted_grades/9_wrong.png,./visual stimuli-exp/grades/adjusted_grades/7_wrong.png,./visual stimuli-exp/grades/adjusted_grades/5_wrong.png,./visual stimuli-exp/grades/adjusted_grades/3_wrong.png,./visual stimuli-exp/grades/adjusted_grades/1_wrong.png,./visual stimuli-exp/grades/adjusted_grades/0_wrong.png,284747,15,html-coin-betting-response,,excellent
35,Condition 1,0.0-7.0-0.4,,0,0,0,0,0,0,0,1,9,9889,"<div><img src=""./visual stimuli-exp/grades/visualized_grades_context/visualized_perfect.png"" height = ""330""></div><p style=""margin: 8px 0px;"">Which examination sheet do you think is on the desk? Use the ""+"" and ""&ndash;"" buttons to distribute 10 coins across the likely examination sheets.</p>",,./visual stimuli-exp/grades/adjusted_grades/30_wrong.png,./visual stimuli-exp/grades/adjusted_grades/13_wrong.png,./visual stimuli-exp/grades/adjusted_grades/11_wrong.png,./visual stimuli-exp/grades/adjusted_grades/9_wrong.png,./visual stimuli-exp/grades/adjusted_grades/7_wrong.png,./visual stimuli-exp/grades/adjusted_grades/5_wrong.png,./visual stimuli-exp/grades/adjusted_grades/3_wrong.png,./visual stimuli-exp/grades/adjusted_grades/1_wrong.png,./visual stimuli-exp/grades/adjusted_grades/0_wrong.png,294639,16,html-coin-betting-response,,perfect
35,Condition 1,0.0-7.0-0.5,,0,0,0,0,1,2,7,0,0,17011,"<div><img src=""./visual stimuli-exp/grades/visualized_grades_context/visualized_good.png"" height = ""330""></div><p style=""margin: 8px 0px;"">Which examination sheet do you think is on the desk? Use the ""+"" and ""&ndash;"" buttons to distribute 10 coins across the likely examination sheets.</p>",,./visual stimuli-exp/grades/adjusted_grades/30_wrong.png,./visual stimuli-exp/grades/adjusted_grades/13_wrong.png,./visual stimuli-exp/grades/adjusted_grades/11_wrong.png,./visual stimuli-exp/grades/adjusted_grades/9_wrong.png,./visual stimuli-exp/grades/adjusted_grades/7_wrong.png,./visual stimuli-exp/grades/adjusted_grades/5_wrong.png,./visual stimuli-exp/grades/adjusted_grades/3_wrong.png,./visual stimuli-exp/grades/adjusted_grades/1_wrong.png,./visual stimuli-exp/grades/adjusted_grades/0_wrong.png,311654,17,html-coin-betting-response,,good
35,Condition 1,0.0-9.0-0.0,,0,0,0,0,0,0,0,1,9,10441,"<div><img src=""./visual stimuli-exp/clean/visualized_cleaness_context/visualized_spotless.png"" height = ""310""></div><p style=""margin: 8px 0px;"">Which window do you think the man is looking at? Use the ""+"" and ""&ndash;"" buttons to distribute 10 coins across the likely windows.</p>",,./visual stimuli-exp/clean/adjusted_cleaness/100-dirty.png,./visual stimuli-exp/clean/adjusted_cleaness/60-dirty-with-spots.png,./visual stimuli-exp/clean/adjusted_cleaness/45-dirty-with-spots.png,./visual stimuli-exp/clean/adjusted_cleaness/30-clean.png,./visual stimuli-exp/clean/adjusted_cleaness/15-clean.png,./visual stimuli-exp/clean/adjusted_cleaness/0-clean-spotless.png,./visual stimuli-exp/clean/adjusted_cleaness/0-spotless.png,./visual stimuli-exp/clean/adjusted_cleaness/0-spotless-light-2.png,./visual stimuli-exp/clean/adjusted_cleaness/0-spotless-light-4.png,341425,19,html-coin-betting-response,,spotless
35,Condition 1,0.0-9.0-0.1,,0,0,0,1,9,0,0,0,0,8226,"<div><img src=""./visual stimuli-exp/clean/visualized_cleaness_context/visualized_cleanish.png"" height = ""310""></div><p style=""margin: 8px 0px;"">Which window do you think the man is looking at? Use the ""+"" and ""&ndash;"" buttons to distribute 10 coins across the likely windows.</p>",,./visual stimuli-exp/clean/adjusted_cleaness/100-dirty.png,./visual stimuli-exp/clean/adjusted_cleaness/60-dirty-with-spots.png,./visual stimuli-exp/clean/adjusted_cleaness/45-dirty-with-spots.png,./visual stimuli-exp/clean/adjusted_cleaness/30-clean.png,./visual stimuli-exp/clean/adjusted_cleaness/15-clean.png,./visual stimuli-exp/clean/adjusted_cleaness/0-clean-spotless.png,./visual stimuli-exp/clean/adjusted_cleaness/0-spotless.png,./visual stimuli-exp/clean/adjusted_cleaness/0-spotless-light-2.png,./visual stimuli-exp/clean/adjusted_cleaness/0-spotless-light-4.png,349656,20,html-coin-betting-response,,cleanish
35,Condition 1,0.0-9.0-0.2,,0,0,0,0,1,9,0,0,0,6053,"<div><img src=""./visual stimuli-exp/clean/visualized_cleaness_context/visualized_clean.png"" height = ""310""></div><p style=""margin: 8px 0px;"">Which window do you think the man is looking at? Use the ""+"" and ""&ndash;"" buttons to distribute 10 coins across the likely windows.</p>",,./visual stimuli-exp/clean/adjusted_cleaness/100-dirty.png,./visual stimuli-exp/clean/adjusted_cleaness/60-dirty-with-spots.png,./visual stimuli-exp/clean/adjusted_cleaness/45-dirty-with-spots.png,./visual stimuli-exp/clean/adjusted_cleaness/30-clean.png,./visual stimuli-exp/clean/adjusted_cleaness/15-clean.png,./visual stimuli-exp/clean/adjusted_cleaness/0-clean-spotless.png,./visual stimuli-exp/clean/adjusted_cleaness/0-spotless.png,./visual stimuli-exp/clean/adjusted_cleaness/0-spotless-light-2.png,./visual stimuli-exp/clean/adjusted_cleaness/0-spotless-light-4.png,355713,21,html-coin-betting-response,,clean
35,Condition 1,0.0-9.0-0.3,,0,0,0,1,9,0,0,0,0,5364,"<div><img src=""./visual stimuli-exp/clean/visualized_cleaness_context/visualized_cleanish.png"" height = ""310""></div><p style=""margin: 8px 0px;"">Which window do you think the man is looking at? Use the ""+"" and ""&ndash;"" buttons to distribute 10 coins across the likely windows.</p>",,./visual stimuli-exp/clean/adjusted_cleaness/100-dirty.png,./visual stimuli-exp/clean/adjusted_cleaness/60-dirty-with-spots.png,./visual stimuli-exp/clean/adjusted_cleaness/45-dirty-with-spots.png,./visual stimuli-exp/clean/adjusted_cleaness/30-clean.png,./visual stimuli-exp/clean/adjusted_cleaness/15-clean.png,./visual stimuli-exp/clean/adjusted_cleaness/0-clean-spotless.png,./visual stimuli-exp/clean/adjusted_cleaness/0-spotless.png,./visual stimuli-exp/clean/adjusted_cleaness/0-spotless-light-2.png,./visual stimuli-exp/clean/adjusted_cleaness/0-spotless-light-4.png,361081,22,html-coin-betting-response,,cleanish
35,Condition 1,0.0-9.0-0.4,,0,0,0,0,1,9,0,0,0,4445,"<div><img src=""./visual stimuli-exp/clean/visualized_cleaness_context/visualized_clean.png"" height = ""310""></div><p style=""margin: 8px 0px;"">Which window do you think the man is looking at? Use the ""+"" and ""&ndash;"" buttons to distribute 10 coins across the likely windows.</p>",,./visual stimuli-exp/clean/adjusted_cleaness/100-dirty.png,./visual stimuli-exp/clean/adjusted_cleaness/60-dirty-with-spots.png,./visual stimuli-exp/clean/adjusted_cleaness/45-dirty-with-spots.png,./visual stimuli-exp/clean/adjusted_cleaness/30-clean.png,./visual stimuli-exp/clean/adjusted_cleaness/15-clean.png,./visual stimuli-exp/clean/adjusted_cleaness/0-clean-spotless.png,./visual stimuli-exp/clean/adjusted_cleaness/0-spotless.png,./visual stimuli-exp/clean/adjusted_cleaness/0-spotless-light-2.png,./visual stimuli-exp/clean/adjusted_cleaness/0-spotless-light-4.png,365530,23,html-coin-betting-response,,clean
35,Condition 1,0.0-9.0-0.5,,0,0,0,0,0,0,0,0,10,5866,"<div><img src=""./visual stimuli-exp/clean/visualized_cleaness_context/visualized_spotless.png"" height = ""310""></div><p style=""margin: 8px 0px;"">Which window do you think the man is looking at? Use the ""+"" and ""&ndash;"" buttons to distribute 10 coins across the likely windows.</p>",,./visual stimuli-exp/clean/adjusted_cleaness/100-dirty.png,./visual stimuli-exp/clean/adjusted_cleaness/60-dirty-with-spots.png,./visual stimuli-exp/clean/adjusted_cleaness/45-dirty-with-spots.png,./visual stimuli-exp/clean/adjusted_cleaness/30-clean.png,./visual stimuli-exp/clean/adjusted_cleaness/15-clean.png,./visual stimuli-exp/clean/adjusted_cleaness/0-clean-spotless.png,./visual stimuli-exp/clean/adjusted_cleaness/0-spotless.png,./visual stimuli-exp/clean/adjusted_cleaness/0-spotless-light-2.png,./visual stimuli-exp/clean/adjusted_cleaness/0-spotless-light-4.png,371399,24,html-coin-betting-response,,spotless
40,Condition 1,0.0-5.0-0.0,,0,0,0,0,0,0,3,3,4,70719,"<div><img src=""./visual stimuli-exp/temperature/visualized_temperature_context/visualized_hot.png"" height = ""270""></div><p style=""margin: 8px 0px;"">Which thermometer do you think is showing the temperature of the water in the cup? Use the ""+"" and ""&ndash;"" buttons to distribute 10 coins across the likely thermometers.</p>",,./visual stimuli-exp/temperature/adjusted_temperature/10.png,./visual stimuli-exp/temperature/adjusted_temperature/20.png,./visual stimuli-exp/temperature/adjusted_temperature/30.png,./visual stimuli-exp/temperature/adjusted_temperature/40.png,./visual stimuli-exp/temperature/adjusted_temperature/50.png,./visual stimuli-exp/temperature/adjusted_temperature/60.png,./visual stimuli-exp/temperature/adjusted_temperature/70.png,./visual stimuli-exp/temperature/adjusted_temperature/80.png,./visual stimuli-exp/temperature/adjusted_temperature/90.png,120583,5,html-coin-betting-response,,hot
40,Condition 1,0.0-5.0-0.1,,0,0,0,0,4,4,2,0,0,21963,"<div><img src=""./visual stimuli-exp/temperature/visualized_temperature_context/visualized_warm.png"" height = ""270""></div><p style=""margin: 8px 0px;"">Which thermometer do you think is showing the temperature of the water in the cup? Use the ""+"" and ""&ndash;"" buttons to distribute 10 coins across the likely thermometers.</p>",,./visual stimuli-exp/temperature/adjusted_temperature/10.png,./visual stimuli-exp/temperature/adjusted_temperature/20.png,./visual stimuli-exp/temperature/adjusted_temperature/30.png,./visual stimuli-exp/temperature/adjusted_temperature/40.png,./visual stimuli-exp/temperature/adjusted_temperature/50.png,./visual stimuli-exp/temperature/adjusted_temperature/60.png,./visual stimuli-exp/temperature/adjusted_temperature/70.png,./visual stimuli-exp/temperature/adjusted_temperature/80.png,./visual stimuli-exp/temperature/adjusted_temperature/90.png,142550,6,html-coin-betting-response,,warm
40,Condition 1,0.0-5.0-0.2,,0,0,0,0,0,0,0,4,6,16661,"<div><img src=""./visual stimuli-exp/temperature/visualized_temperature_context/visualized_scalding.png"" height = ""270""></div><p style=""margin: 8px 0px;"">Which thermometer do you think is showing the temperature of the water in the cup? Use the ""+"" and ""&ndash;"" buttons to distribute 10 coins across the likely thermometers.</p>",,./visual stimuli-exp/temperature/adjusted_temperature/10.png,./visual stimuli-exp/temperature/adjusted_temperature/20.png,./visual stimuli-exp/temperature/adjusted_temperature/30.png,./visual stimuli-exp/temperature/adjusted_temperature/40.png,./visual stimuli-exp/temperature/adjusted_temperature/50.png,./visual stimuli-exp/temperature/adjusted_temperature/60.png,./visual stimuli-exp/temperature/adjusted_temperature/70.png,./visual stimuli-exp/temperature/adjusted_temperature/80.png,./visual stimuli-exp/temperature/adjusted_temperature/90.png,159215,7,html-coin-betting-response,,scalding
40,Condition 1,0.0-5.0-0.3,,0,0,0,0,0,0,4,6,0,27606,"<div><img src=""./visual stimuli-exp/temperature/visualized_temperature_context/visualized_hot.png"" height = ""270""></div><p style=""margin: 8px 0px;"">Which thermometer do you think is showing the temperature of the water in the cup? Use the ""+"" and ""&ndash;"" buttons to distribute 10 coins across the likely thermometers.</p>",,./visual stimuli-exp/temperature/adjusted_temperature/10.png,./visual stimuli-exp/temperature/adjusted_temperature/20.png,./visual stimuli-exp/temperature/adjusted_temperature/30.png,./visual stimuli-exp/temperature/adjusted_temperature/40.png,./visual stimuli-exp/temperature/adjusted_temperature/50.png,./visual stimuli-exp/temperature/adjusted_temperature/60.png,./visual stimuli-exp/temperature/adjusted_temperature/70.png,./visual stimuli-exp/temperature/adjusted_temperature/80.png,./visual stimuli-exp/temperature/adjusted_temperature/90.png,186824,8,html-coin-betting-response,,hot
40,Condition 1,0.0-5.0-0.4,,0,0,0,0,0,0,0,4,6,15641,"<div><img src=""./visual stimuli-exp/temperature/visualized_temperature_context/visualized_scalding.png"" height = ""270""></div><p style=""margin: 8px 0px;"">Which thermometer do you think is showing the temperature of the water in the cup? Use the ""+"" and ""&ndash;"" buttons to distribute 10 coins across the likely thermometers.</p>",,./visual stimuli-exp/temperature/adjusted_temperature/10.png,./visual stimuli-exp/temperature/adjusted_temperature/20.png,./visual stimuli-exp/temperature/adjusted_temperature/30.png,./visual stimuli-exp/temperature/adjusted_temperature/40.png,./visual stimuli-exp/temperature/adjusted_temperature/50.png,./visual stimuli-exp/temperature/adjusted_temperature/60.png,./visual stimuli-exp/temperature/adjusted_temperature/70.png,./visual stimuli-exp/temperature/adjusted_temperature/80.png,./visual stimuli-exp/temperature/adjusted_temperature/90.png,202468,9,html-coin-betting-response,,scalding
40,Condition 1,0.0-5.0-0.5,,0,0,0,1,5,4,0,0,0,16734,"<div><img src=""./visual stimuli-exp/temperature/visualized_temperature_context/visualized_warm.png"" height = ""270""></div><p style=""margin: 8px 0px;"">Which thermometer do you think is showing the temperature of the water in the cup? Use the ""+"" and ""&ndash;"" buttons to distribute 10 coins across the likely thermometers.</p>",,./visual stimuli-exp/temperature/adjusted_temperature/10.png,./visual stimuli-exp/temperature/adjusted_temperature/20.png,./visual stimuli-exp/temperature/adjusted_temperature/30.png,./visual stimuli-exp/temperature/adjusted_temperature/40.png,./visual stimuli-exp/temperature/adjusted_temperature/50.png,./visual stimuli-exp/temperature/adjusted_temperature/60.png,./visual stimuli-exp/temperature/adjusted_temperature/70.png,./visual stimuli-exp/temperature/adjusted_temperature/80.png,./visual stimuli-exp/temperature/adjusted_temperature/90.png,219204,10,html-coin-betting-response,,warm
40,Condition 1,0.0-7.0-0.0,,0,0,0,0,0,0,2,3,5,24671,"<div><img src=""./visual stimuli-exp/grades/visualized_grades_context/visualized_perfect.png"" height = ""330""></div><p style=""margin: 8px 0px;"">Which examination sheet do you think is on the desk? Use the ""+"" and ""&ndash;"" buttons to distribute 10 coins across the likely examination sheets.</p>",,./visual stimuli-exp/grades/adjusted_grades/30_wrong.png,./visual stimuli-exp/grades/adjusted_grades/13_wrong.png,./visual stimuli-exp/grades/adjusted_grades/11_wrong.png,./visual stimuli-exp/grades/adjusted_grades/9_wrong.png,./visual stimuli-exp/grades/adjusted_grades/7_wrong.png,./visual stimuli-exp/grades/adjusted_grades/5_wrong.png,./visual stimuli-exp/grades/adjusted_grades/3_wrong.png,./visual stimuli-exp/grades/adjusted_grades/1_wrong.png,./visual stimuli-exp/grades/adjusted_grades/0_wrong.png,261672,12,html-coin-betting-response,,perfect
40,Condition 1,0.0-7.0-0.1,,0,0,0,0,0,0,2,4,4,13039,"<div><img src=""./visual stimuli-exp/grades/visualized_grades_context/visualized_excellent.png"" height = ""330""></div><p style=""margin: 8px 0px;"">Which examination sheet do you think is on the desk? Use the ""+"" and ""&ndash;"" buttons to distribute 10 coins across the likely examination sheets.</p>",,./visual stimuli-exp/grades/adjusted_grades/30_wrong.png,./visual stimuli-exp/grades/adjusted_grades/13_wrong.png,./visual stimuli-exp/grades/adjusted_grades/11_wrong.png,./visual stimuli-exp/grades/adjusted_grades/9_wrong.png,./visual stimuli-exp/grades/adjusted_grades/7_wrong.png,./visual stimuli-exp/grades/adjusted_grades/5_wrong.png,./visual stimuli-exp/grades/adjusted_grades/3_wrong.png,./visual stimuli-exp/grades/adjusted_grades/1_wrong.png,./visual stimuli-exp/grades/adjusted_grades/0_wrong.png,274715,13,html-coin-betting-response,,excellent
40,Condition 1,0.0-7.0-0.2,,0,0,0,0,0,4,4,2,0,15307,"<div><img src=""./visual stimuli-exp/grades/visualized_grades_context/visualized_good.png"" height = ""330""></div><p style=""margin: 8px 0px;"">Which examination sheet do you think is on the desk? Use the ""+"" and ""&ndash;"" buttons to distribute 10 coins across the likely examination sheets.</p>",,./visual stimuli-exp/grades/adjusted_grades/30_wrong.png,./visual stimuli-exp/grades/adjusted_grades/13_wrong.png,./visual stimuli-exp/grades/adjusted_grades/11_wrong.png,./visual stimuli-exp/grades/adjusted_grades/9_wrong.png,./visual stimuli-exp/grades/adjusted_grades/7_wrong.png,./visual stimuli-exp/grades/adjusted_grades/5_wrong.png,./visual stimuli-exp/grades/adjusted_grades/3_wrong.png,./visual stimuli-exp/grades/adjusted_grades/1_wrong.png,./visual stimuli-exp/grades/adjusted_grades/0_wrong.png,290026,14,html-coin-betting-response,,good
40,Condition 1,0.0-7.0-0.3,,0,0,0,0,0,5,4,1,0,13601,"<div><img src=""./visual stimuli-exp/grades/visualized_grades_context/visualized_good.png"" height = ""330""></div><p style=""margin: 8px 0px;"">Which examination sheet do you think is on the desk? Use the ""+"" and ""&ndash;"" buttons to distribute 10 coins across the likely examination sheets.</p>",,./visual stimuli-exp/grades/adjusted_grades/30_wrong.png,./visual stimuli-exp/grades/adjusted_grades/13_wrong.png,./visual stimuli-exp/grades/adjusted_grades/11_wrong.png,./visual stimuli-exp/grades/adjusted_grades/9_wrong.png,./visual stimuli-exp/grades/adjusted_grades/7_wrong.png,./visual stimuli-exp/grades/adjusted_grades/5_wrong.png,./visual stimuli-exp/grades/adjusted_grades/3_wrong.png,./visual stimuli-exp/grades/adjusted_grades/1_wrong.png,./visual stimuli-exp/grades/adjusted_grades/0_wrong.png,303630,15,html-coin-betting-response,,good
40,Condition 1,0.0-7.0-0.4,,0,0,0,0,0,0,0,4,6,13804,"<div><img src=""./visual stimuli-exp/grades/visualized_grades_context/visualized_perfect.png"" height = ""330""></div><p style=""margin: 8px 0px;"">Which examination sheet do you think is on the desk? Use the ""+"" and ""&ndash;"" buttons to distribute 10 coins across the likely examination sheets.</p>",,./visual stimuli-exp/grades/adjusted_grades/30_wrong.png,./visual stimuli-exp/grades/adjusted_grades/13_wrong.png,./visual stimuli-exp/grades/adjusted_grades/11_wrong.png,./visual stimuli-exp/grades/adjusted_grades/9_wrong.png,./visual stimuli-exp/grades/adjusted_grades/7_wrong.png,./visual stimuli-exp/grades/adjusted_grades/5_wrong.png,./visual stimuli-exp/grades/adjusted_grades/3_wrong.png,./visual stimuli-exp/grades/adjusted_grades/1_wrong.png,./visual stimuli-exp/grades/adjusted_grades/0_wrong.png,317436,16,html-coin-betting-response,,perfect
40,Condition 1,0.0-7.0-0.5,,0,0,0,0,0,0,2,4,4,14452,"<div><img src=""./visual stimuli-exp/grades/visualized_grades_context/visualized_excellent.png"" height = ""330""></div><p style=""margin: 8px 0px;"">Which examination sheet do you think is on the desk? Use the ""+"" and ""&ndash;"" buttons to distribute 10 coins across the likely examination sheets.</p>",,./visual stimuli-exp/grades/adjusted_grades/30_wrong.png,./visual stimuli-exp/grades/adjusted_grades/13_wrong.png,./visual stimuli-exp/grades/adjusted_grades/11_wrong.png,./visual stimuli-exp/grades/adjusted_grades/9_wrong.png,./visual stimuli-exp/grades/adjusted_grades/7_wrong.png,./visual stimuli-exp/grades/adjusted_grades/5_wrong.png,./visual stimuli-exp/grades/adjusted_grades/3_wrong.png,./visual stimuli-exp/grades/adjusted_grades/1_wrong.png,./visual stimuli-exp/grades/adjusted_grades/0_wrong.png,331891,17,html-coin-betting-response,,excellent
40,Condition 1,0.0-9.0-0.0,,0,0,0,0,3,4,3,0,0,24483,"<div><img src=""./visual stimuli-exp/clean/visualized_cleaness_context/visualized_clean.png"" height = ""310""></div><p style=""margin: 8px 0px;"">Which window do you think the man is looking at? Use the ""+"" and ""&ndash;"" buttons to distribute 10 coins across the likely windows.</p>",,./visual stimuli-exp/clean/adjusted_cleaness/100-dirty.png,./visual stimuli-exp/clean/adjusted_cleaness/60-dirty-with-spots.png,./visual stimuli-exp/clean/adjusted_cleaness/45-dirty-with-spots.png,./visual stimuli-exp/clean/adjusted_cleaness/30-clean.png,./visual stimuli-exp/clean/adjusted_cleaness/15-clean.png,./visual stimuli-exp/clean/adjusted_cleaness/0-clean-spotless.png,./visual stimuli-exp/clean/adjusted_cleaness/0-spotless.png,./visual stimuli-exp/clean/adjusted_cleaness/0-spotless-light-2.png,./visual stimuli-exp/clean/adjusted_cleaness/0-spotless-light-4.png,372079,19,html-coin-betting-response,,clean
40,Condition 1,0.0-9.0-0.1,,0,0,0,0,0,0,0,4,6,9415,"<div><img src=""./visual stimuli-exp/clean/visualized_cleaness_context/visualized_spotless.png"" height = ""310""></div><p style=""margin: 8px 0px;"">Which window do you think the man is looking at? Use the ""+"" and ""&ndash;"" buttons to distribute 10 coins across the likely windows.</p>",,./visual stimuli-exp/clean/adjusted_cleaness/100-dirty.png,./visual stimuli-exp/clean/adjusted_cleaness/60-dirty-with-spots.png,./visual stimuli-exp/clean/adjusted_cleaness/45-dirty-with-spots.png,./visual stimuli-exp/clean/adjusted_cleaness/30-clean.png,./visual stimuli-exp/clean/adjusted_cleaness/15-clean.png,./visual stimuli-exp/clean/adjusted_cleaness/0-clean-spotless.png,./visual stimuli-exp/clean/adjusted_cleaness/0-spotless.png,./visual stimuli-exp/clean/adjusted_cleaness/0-spotless-light-2.png,./visual stimuli-exp/clean/adjusted_cleaness/0-spotless-light-4.png,381498,20,html-coin-betting-response,,spotless
40,Condition 1,0.0-9.0-0.2,,0,0,6,4,0,0,0,0,0,13876,"<div><img src=""./visual stimuli-exp/clean/visualized_cleaness_context/visualized_cleanish.png"" height = ""310""></div><p style=""margin: 8px 0px;"">Which window do you think the man is looking at? Use the ""+"" and ""&ndash;"" buttons to distribute 10 coins across the likely windows.</p>",,./visual stimuli-exp/clean/adjusted_cleaness/100-dirty.png,./visual stimuli-exp/clean/adjusted_cleaness/60-dirty-with-spots.png,./visual stimuli-exp/clean/adjusted_cleaness/45-dirty-with-spots.png,./visual stimuli-exp/clean/adjusted_cleaness/30-clean.png,./visual stimuli-exp/clean/adjusted_cleaness/15-clean.png,./visual stimuli-exp/clean/adjusted_cleaness/0-clean-spotless.png,./visual stimuli-exp/clean/adjusted_cleaness/0-spotless.png,./visual stimuli-exp/clean/adjusted_cleaness/0-spotless-light-2.png,./visual stimuli-exp/clean/adjusted_cleaness/0-spotless-light-4.png,395378,21,html-coin-betting-response,,cleanish
40,Condition 1,0.0-9.0-0.3,,0,0,0,0,0,0,0,4,6,9146,"<div><img src=""./visual stimuli-exp/clean/visualized_cleaness_context/visualized_spotless.png"" height = ""310""></div><p style=""margin: 8px 0px;"">Which window do you think the man is looking at? Use the ""+"" and ""&ndash;"" buttons to distribute 10 coins across the likely windows.</p>",,./visual stimuli-exp/clean/adjusted_cleaness/100-dirty.png,./visual stimuli-exp/clean/adjusted_cleaness/60-dirty-with-spots.png,./visual stimuli-exp/clean/adjusted_cleaness/45-dirty-with-spots.png,./visual stimuli-exp/clean/adjusted_cleaness/30-clean.png,./visual stimuli-exp/clean/adjusted_cleaness/15-clean.png,./visual stimuli-exp/clean/adjusted_cleaness/0-clean-spotless.png,./visual stimuli-exp/clean/adjusted_cleaness/0-spotless.png,./visual stimuli-exp/clean/adjusted_cleaness/0-spotless-light-2.png,./visual stimuli-exp/clean/adjusted_cleaness/0-spotless-light-4.png,404526,22,html-coin-betting-response,,spotless
40,Condition 1,0.0-9.0-0.4,,0,1,6,3,0,0,0,0,0,11328,"<div><img src=""./visual stimuli-exp/clean/visualized_cleaness_context/visualized_cleanish.png"" height = ""310""></div><p style=""margin: 8px 0px;"">Which window do you think the man is looking at? Use the ""+"" and ""&ndash;"" buttons to distribute 10 coins across the likely windows.</p>",,./visual stimuli-exp/clean/adjusted_cleaness/100-dirty.png,./visual stimuli-exp/clean/adjusted_cleaness/60-dirty-with-spots.png,./visual stimuli-exp/clean/adjusted_cleaness/45-dirty-with-spots.png,./visual stimuli-exp/clean/adjusted_cleaness/30-clean.png,./visual stimuli-exp/clean/adjusted_cleaness/15-clean.png,./visual stimuli-exp/clean/adjusted_cleaness/0-clean-spotless.png,./visual stimuli-exp/clean/adjusted_cleaness/0-spotless.png,./visual stimuli-exp/clean/adjusted_cleaness/0-spotless-light-2.png,./visual stimuli-exp/clean/adjusted_cleaness/0-spotless-light-4.png,415856,23,html-coin-betting-response,,cleanish
40,Condition 1,0.0-9.0-0.5,,0,0,0,1,5,4,0,0,0,12742,"<div><img src=""./visual stimuli-exp/clean/visualized_cleaness_context/visualized_clean.png"" height = ""310""></div><p style=""margin: 8px 0px;"">Which window do you think the man is looking at? Use the ""+"" and ""&ndash;"" buttons to distribute 10 coins across the likely windows.</p>",,./visual stimuli-exp/clean/adjusted_cleaness/100-dirty.png,./visual stimuli-exp/clean/adjusted_cleaness/60-dirty-with-spots.png,./visual stimuli-exp/clean/adjusted_cleaness/45-dirty-with-spots.png,./visual stimuli-exp/clean/adjusted_cleaness/30-clean.png,./visual stimuli-exp/clean/adjusted_cleaness/15-clean.png,./visual stimuli-exp/clean/adjusted_cleaness/0-clean-spotless.png,./visual stimuli-exp/clean/adjusted_cleaness/0-spotless.png,./visual stimuli-exp/clean/adjusted_cleaness/0-spotless-light-2.png,./visual stimuli-exp/clean/adjusted_cleaness/0-spotless-light-4.png,428602,24,html-coin-betting-response,,clean
60,Condition 1,0.0-5.0-0.0,,0,0,2,6,2,0,0,0,0,23377,"<div><img src=""./visual stimuli-exp/temperature/visualized_temperature_context/visualized_scalding.png"" height = ""270""></div><p style=""margin: 8px 0px;"">Which thermometer do you think is showing the temperature of the water in the cup? Use the ""+"" and ""&ndash;"" buttons to distribute 10 coins across the likely thermometers.</p>",,./visual stimuli-exp/temperature/adjusted_temperature/10.png,./visual stimuli-exp/temperature/adjusted_temperature/20.png,./visual stimuli-exp/temperature/adjusted_temperature/30.png,./visual stimuli-exp/temperature/adjusted_temperature/40.png,./visual stimuli-exp/temperature/adjusted_temperature/50.png,./visual stimuli-exp/temperature/adjusted_temperature/60.png,./visual stimuli-exp/temperature/adjusted_temperature/70.png,./visual stimuli-exp/temperature/adjusted_temperature/80.png,./visual stimuli-exp/temperature/adjusted_temperature/90.png,84719,5,html-coin-betting-response,,scalding
60,Condition 1,0.0-5.0-0.1,,0,0,0,0,0,6,4,0,0,11310,"<div><img src=""./visual stimuli-exp/temperature/visualized_temperature_context/visualized_hot.png"" height = ""270""></div><p style=""margin: 8px 0px;"">Which thermometer do you think is showing the temperature of the water in the cup? Use the ""+"" and ""&ndash;"" buttons to distribute 10 coins across the likely thermometers.</p>",,./visual stimuli-exp/temperature/adjusted_temperature/10.png,./visual stimuli-exp/temperature/adjusted_temperature/20.png,./visual stimuli-exp/temperature/adjusted_temperature/30.png,./visual stimuli-exp/temperature/adjusted_temperature/40.png,./visual stimuli-exp/temperature/adjusted_temperature/50.png,./visual stimuli-exp/temperature/adjusted_temperature/60.png,./visual stimuli-exp/temperature/adjusted_temperature/70.png,./visual stimuli-exp/temperature/adjusted_temperature/80.png,./visual stimuli-exp/temperature/adjusted_temperature/90.png,96035,6,html-coin-betting-response,,hot
60,Condition 1,0.0-5.0-0.2,,0,0,5,5,0,0,0,0,0,14665,"<div><img src=""./visual stimuli-exp/temperature/visualized_temperature_context/visualized_warm.png"" height = ""270""></div><p style=""margin: 8px 0px;"">Which thermometer do you think is showing the temperature of the water in the cup? Use the ""+"" and ""&ndash;"" buttons to distribute 10 coins across the likely thermometers.</p>",,./visual stimuli-exp/temperature/adjusted_temperature/10.png,./visual stimuli-exp/temperature/adjusted_temperature/20.png,./visual stimuli-exp/temperature/adjusted_temperature/30.png,./visual stimuli-exp/temperature/adjusted_temperature/40.png,./visual stimuli-exp/temperature/adjusted_temperature/50.png,./visual stimuli-exp/temperature/adjusted_temperature/60.png,./visual stimuli-exp/temperature/adjusted_temperature/70.png,./visual stimuli-exp/temperature/adjusted_temperature/80.png,./visual stimuli-exp/temperature/adjusted_temperature/90.png,110703,7,html-coin-betting-response,,warm
60,Condition 1,0.0-5.0-0.3,,0,0,0,0,0,0,0,4,6,17196,"<div><img src=""./visual stimuli-exp/temperature/visualized_temperature_context/visualized_scalding.png"" height = ""270""></div><p style=""margin: 8px 0px;"">Which thermometer do you think is showing the temperature of the water in the cup? Use the ""+"" and ""&ndash;"" buttons to distribute 10 coins across the likely thermometers.</p>",,./visual stimuli-exp/temperature/adjusted_temperature/10.png,./visual stimuli-exp/temperature/adjusted_temperature/20.png,./visual stimuli-exp/temperature/adjusted_temperature/30.png,./visual stimuli-exp/temperature/adjusted_temperature/40.png,./visual stimuli-exp/temperature/adjusted_temperature/50.png,./visual stimuli-exp/temperature/adjusted_temperature/60.png,./visual stimuli-exp/temperature/adjusted_temperature/70.png,./visual stimuli-exp/temperature/adjusted_temperature/80.png,./visual stimuli-exp/temperature/adjusted_temperature/90.png,127903,8,html-coin-betting-response,,scalding
60,Condition 1,0.0-5.0-0.4,,0,0,7,3,0,0,0,0,0,14929,"<div><img src=""./visual stimuli-exp/temperature/visualized_temperature_context/visualized_warm.png"" height = ""270""></div><p style=""margin: 8px 0px;"">Which thermometer do you think is showing the temperature of the water in the cup? Use the ""+"" and ""&ndash;"" buttons to distribute 10 coins across the likely thermometers.</p>",,./visual stimuli-exp/temperature/adjusted_temperature/10.png,./visual stimuli-exp/temperature/adjusted_temperature/20.png,./visual stimuli-exp/temperature/adjusted_temperature/30.png,./visual stimuli-exp/temperature/adjusted_temperature/40.png,./visual stimuli-exp/temperature/adjusted_temperature/50.png,./visual stimuli-exp/temperature/adjusted_temperature/60.png,./visual stimuli-exp/temperature/adjusted_temperature/70.png,./visual stimuli-exp/temperature/adjusted_temperature/80.png,./visual stimuli-exp/temperature/adjusted_temperature/90.png,142835,9,html-coin-betting-response,,warm
60,Condition 1,0.0-5.0-0.5,,0,0,0,0,3,4,3,0,0,15012,"<div><img src=""./visual stimuli-exp/temperature/visualized_temperature_context/visualized_hot.png"" height = ""270""></div><p style=""margin: 8px 0px;"">Which thermometer do you think is showing the temperature of the water in the cup? Use the ""+"" and ""&ndash;"" buttons to distribute 10 coins across the likely thermometers.</p>",,./visual stimuli-exp/temperature/adjusted_temperature/10.png,./visual stimuli-exp/temperature/adjusted_temperature/20.png,./visual stimuli-exp/temperature/adjusted_temperature/30.png,./visual stimuli-exp/temperature/adjusted_temperature/40.png,./visual stimuli-exp/temperature/adjusted_temperature/50.png,./visual stimuli-exp/temperature/adjusted_temperature/60.png,./visual stimuli-exp/temperature/adjusted_temperature/70.png,./visual stimuli-exp/temperature/adjusted_temperature/80.png,./visual stimuli-exp/temperature/adjusted_temperature/90.png,157851,10,html-coin-betting-response,,hot
60,Condition 1,0.0-7.0-0.0,,0,0,0,2,4,4,0,0,0,24845,"<div><img src=""./visual stimuli-exp/grades/visualized_grades_context/visualized_good.png"" height = ""330""></div><p style=""margin: 8px 0px;"">Which examination sheet do you think is on the desk? Use the ""+"" and ""&ndash;"" buttons to distribute 10 coins across the likely examination sheets.</p>",,./visual stimuli-exp/grades/adjusted_grades/30_wrong.png,./visual stimuli-exp/grades/adjusted_grades/13_wrong.png,./visual stimuli-exp/grades/adjusted_grades/11_wrong.png,./visual stimuli-exp/grades/adjusted_grades/9_wrong.png,./visual stimuli-exp/grades/adjusted_grades/7_wrong.png,./visual stimuli-exp/grades/adjusted_grades/5_wrong.png,./visual stimuli-exp/grades/adjusted_grades/3_wrong.png,./visual stimuli-exp/grades/adjusted_grades/1_wrong.png,./visual stimuli-exp/grades/adjusted_grades/0_wrong.png,217235,12,html-coin-betting-response,,good
60,Condition 1,0.0-7.0-0.1,,0,0,0,0,0,0,2,4,4,15348,"<div><img src=""./visual stimuli-exp/grades/visualized_grades_context/visualized_excellent.png"" height = ""330""></div><p style=""margin: 8px 0px;"">Which examination sheet do you think is on the desk? Use the ""+"" and ""&ndash;"" buttons to distribute 10 coins across the likely examination sheets.</p>",,./visual stimuli-exp/grades/adjusted_grades/30_wrong.png,./visual stimuli-exp/grades/adjusted_grades/13_wrong.png,./visual stimuli-exp/grades/adjusted_grades/11_wrong.png,./visual stimuli-exp/grades/adjusted_grades/9_wrong.png,./visual stimuli-exp/grades/adjusted_grades/7_wrong.png,./visual stimuli-exp/grades/adjusted_grades/5_wrong.png,./visual stimuli-exp/grades/adjusted_grades/3_wrong.png,./visual stimuli-exp/grades/adjusted_grades/1_wrong.png,./visual stimuli-exp/grades/adjusted_grades/0_wrong.png,232587,13,html-coin-betting-response,,excellent
60,Condition 1,0.0-7.0-0.2,,0,0,0,0,0,0,0,0,10,7528,"<div><img src=""./visual stimuli-exp/grades/visualized_grades_context/visualized_perfect.png"" height = ""330""></div><p style=""margin: 8px 0px;"">Which examination sheet do you think is on the desk? Use the ""+"" and ""&ndash;"" buttons to distribute 10 coins across the likely examination sheets.</p>",,./visual stimuli-exp/grades/adjusted_grades/30_wrong.png,./visual stimuli-exp/grades/adjusted_grades/13_wrong.png,./visual stimuli-exp/grades/adjusted_grades/11_wrong.png,./visual stimuli-exp/grades/adjusted_grades/9_wrong.png,./visual stimuli-exp/grades/adjusted_grades/7_wrong.png,./visual stimuli-exp/grades/adjusted_grades/5_wrong.png,./visual stimuli-exp/grades/adjusted_grades/3_wrong.png,./visual stimuli-exp/grades/adjusted_grades/1_wrong.png,./visual stimuli-exp/grades/adjusted_grades/0_wrong.png,240118,14,html-coin-betting-response,,perfect
60,Condition 1,0.0-7.0-0.3,,0,0,0,0,0,0,0,0,10,8813,"<div><img src=""./visual stimuli-exp/grades/visualized_grades_context/visualized_perfect.png"" height = ""330""></div><p style=""margin: 8px 0px;"">Which examination sheet do you think is on the desk? Use the ""+"" and ""&ndash;"" buttons to distribute 10 coins across the likely examination sheets.</p>",,./visual stimuli-exp/grades/adjusted_grades/30_wrong.png,./visual stimuli-exp/grades/adjusted_grades/13_wrong.png,./visual stimuli-exp/grades/adjusted_grades/11_wrong.png,./visual stimuli-exp/grades/adjusted_grades/9_wrong.png,./visual stimuli-exp/grades/adjusted_grades/7_wrong.png,./visual stimuli-exp/grades/adjusted_grades/5_wrong.png,./visual stimuli-exp/grades/adjusted_grades/3_wrong.png,./visual stimuli-exp/grades/adjusted_grades/1_wrong.png,./visual stimuli-exp/grades/adjusted_grades/0_wrong.png,248935,15,html-coin-betting-response,,perfect
60,Condition 1,0.0-7.0-0.4,,0,0,0,1,3,3,3,0,0,12912,"<div><img src=""./visual stimuli-exp/grades/visualized_grades_context/visualized_good.png"" height = ""330""></div><p style=""margin: 8px 0px;"">Which examination sheet do you think is on the desk? Use the ""+"" and ""&ndash;"" buttons to distribute 10 coins across the likely examination sheets.</p>",,./visual stimuli-exp/grades/adjusted_grades/30_wrong.png,./visual stimuli-exp/grades/adjusted_grades/13_wrong.png,./visual stimuli-exp/grades/adjusted_grades/11_wrong.png,./visual stimuli-exp/grades/adjusted_grades/9_wrong.png,./visual stimuli-exp/grades/adjusted_grades/7_wrong.png,./visual stimuli-exp/grades/adjusted_grades/5_wrong.png,./visual stimuli-exp/grades/adjusted_grades/3_wrong.png,./visual stimuli-exp/grades/adjusted_grades/1_wrong.png,./visual stimuli-exp/grades/adjusted_grades/0_wrong.png,261851,16,html-coin-betting-response,,good
60,Condition 1,0.0-7.0-0.5,,0,0,0,0,0,0,2,4,4,9830,"<div><img src=""./visual stimuli-exp/grades/visualized_grades_context/visualized_excellent.png"" height = ""330""></div><p style=""margin: 8px 0px;"">Which examination sheet do you think is on the desk? Use the ""+"" and ""&ndash;"" buttons to distribute 10 coins across the likely examination sheets.</p>",,./visual stimuli-exp/grades/adjusted_grades/30_wrong.png,./visual stimuli-exp/grades/adjusted_grades/13_wrong.png,./visual stimuli-exp/grades/adjusted_grades/11_wrong.png,./visual stimuli-exp/grades/adjusted_grades/9_wrong.png,./visual stimuli-exp/grades/adjusted_grades/7_wrong.png,./visual stimuli-exp/grades/adjusted_grades/5_wrong.png,./visual stimuli-exp/grades/adjusted_grades/3_wrong.png,./visual stimuli-exp/grades/adjusted_grades/1_wrong.png,./visual stimuli-exp/grades/adjusted_grades/0_wrong.png,271685,17,html-coin-betting-response,,excellent
60,Condition 1,0.0-9.0-0.0,,0,0,0,0,0,3,3,3,1,15312,"<div><img src=""./visual stimuli-exp/clean/visualized_cleaness_context/visualized_clean.png"" height = ""310""></div><p style=""margin: 8px 0px;"">Which window do you think the man is looking at? Use the ""+"" and ""&ndash;"" buttons to distribute 10 coins across the likely windows.</p>",,./visual stimuli-exp/clean/adjusted_cleaness/100-dirty.png,./visual stimuli-exp/clean/adjusted_cleaness/60-dirty-with-spots.png,./visual stimuli-exp/clean/adjusted_cleaness/45-dirty-with-spots.png,./visual stimuli-exp/clean/adjusted_cleaness/30-clean.png,./visual stimuli-exp/clean/adjusted_cleaness/15-clean.png,./visual stimuli-exp/clean/adjusted_cleaness/0-clean-spotless.png,./visual stimuli-exp/clean/adjusted_cleaness/0-spotless.png,./visual stimuli-exp/clean/adjusted_cleaness/0-spotless-light-2.png,./visual stimuli-exp/clean/adjusted_cleaness/0-spotless-light-4.png,307784,19,html-coin-betting-response,,clean
60,Condition 1,0.0-9.0-0.1,,0,0,0,0,0,0,0,5,5,8178,"<div><img src=""./visual stimuli-exp/clean/visualized_cleaness_context/visualized_spotless.png"" height = ""310""></div><p style=""margin: 8px 0px;"">Which window do you think the man is looking at? Use the ""+"" and ""&ndash;"" buttons to distribute 10 coins across the likely windows.</p>",,./visual stimuli-exp/clean/adjusted_cleaness/100-dirty.png,./visual stimuli-exp/clean/adjusted_cleaness/60-dirty-with-spots.png,./visual stimuli-exp/clean/adjusted_cleaness/45-dirty-with-spots.png,./visual stimuli-exp/clean/adjusted_cleaness/30-clean.png,./visual stimuli-exp/clean/adjusted_cleaness/15-clean.png,./visual stimuli-exp/clean/adjusted_cleaness/0-clean-spotless.png,./visual stimuli-exp/clean/adjusted_cleaness/0-spotless.png,./visual stimuli-exp/clean/adjusted_cleaness/0-spotless-light-2.png,./visual stimuli-exp/clean/adjusted_cleaness/0-spotless-light-4.png,315966,20,html-coin-betting-response,,spotless
60,Condition 1,0.0-9.0-0.2,,0,0,0,3,3,4,0,0,0,11298,"<div><img src=""./visual stimuli-exp/clean/visualized_cleaness_context/visualized_cleanish.png"" height = ""310""></div><p style=""margin: 8px 0px;"">Which window do you think the man is looking at? Use the ""+"" and ""&ndash;"" buttons to distribute 10 coins across the likely windows.</p>",,./visual stimuli-exp/clean/adjusted_cleaness/100-dirty.png,./visual stimuli-exp/clean/adjusted_cleaness/60-dirty-with-spots.png,./visual stimuli-exp/clean/adjusted_cleaness/45-dirty-with-spots.png,./visual stimuli-exp/clean/adjusted_cleaness/30-clean.png,./visual stimuli-exp/clean/adjusted_cleaness/15-clean.png,./visual stimuli-exp/clean/adjusted_cleaness/0-clean-spotless.png,./visual stimuli-exp/clean/adjusted_cleaness/0-spotless.png,./visual stimuli-exp/clean/adjusted_cleaness/0-spotless-light-2.png,./visual stimuli-exp/clean/adjusted_cleaness/0-spotless-light-4.png,327268,21,html-coin-betting-response,,cleanish
60,Condition 1,0.0-9.0-0.3,,0,0,0,0,0,5,5,0,0,10246,"<div><img src=""./visual stimuli-exp/clean/visualized_cleaness_context/visualized_clean.png"" height = ""310""></div><p style=""margin: 8px 0px;"">Which window do you think the man is looking at? Use the ""+"" and ""&ndash;"" buttons to distribute 10 coins across the likely windows.</p>",,./visual stimuli-exp/clean/adjusted_cleaness/100-dirty.png,./visual stimuli-exp/clean/adjusted_cleaness/60-dirty-with-spots.png,./visual stimuli-exp/clean/adjusted_cleaness/45-dirty-with-spots.png,./visual stimuli-exp/clean/adjusted_cleaness/30-clean.png,./visual stimuli-exp/clean/adjusted_cleaness/15-clean.png,./visual stimuli-exp/clean/adjusted_cleaness/0-clean-spotless.png,./visual stimuli-exp/clean/adjusted_cleaness/0-spotless.png,./visual stimuli-exp/clean/adjusted_cleaness/0-spotless-light-2.png,./visual stimuli-exp/clean/adjusted_cleaness/0-spotless-light-4.png,337516,22,html-coin-betting-response,,clean
60,Condition 1,0.0-9.0-0.4,,0,0,0,3,3,4,0,0,0,9896,"<div><img src=""./visual stimuli-exp/clean/visualized_cleaness_context/visualized_cleanish.png"" height = ""310""></div><p style=""margin: 8px 0px;"">Which window do you think the man is looking at? Use the ""+"" and ""&ndash;"" buttons to distribute 10 coins across the likely windows.</p>",,./visual stimuli-exp/clean/adjusted_cleaness/100-dirty.png,./visual stimuli-exp/clean/adjusted_cleaness/60-dirty-with-spots.png,./visual stimuli-exp/clean/adjusted_cleaness/45-dirty-with-spots.png,./visual stimuli-exp/clean/adjusted_cleaness/30-clean.png,./visual stimuli-exp/clean/adjusted_cleaness/15-clean.png,./visual stimuli-exp/clean/adjusted_cleaness/0-clean-spotless.png,./visual stimuli-exp/clean/adjusted_cleaness/0-spotless.png,./visual stimuli-exp/clean/adjusted_cleaness/0-spotless-light-2.png,./visual stimuli-exp/clean/adjusted_cleaness/0-spotless-light-4.png,347417,23,html-coin-betting-response,,cleanish
60,Condition 1,0.0-9.0-0.5,,0,0,0,0,0,0,0,4,6,8145,"<div><img src=""./visual stimuli-exp/clean/visualized_cleaness_context/visualized_spotless.png"" height = ""310""></div><p style=""margin: 8px 0px;"">Which window do you think the man is looking at? Use the ""+"" and ""&ndash;"" buttons to distribute 10 coins across the likely windows.</p>",,./visual stimuli-exp/clean/adjusted_cleaness/100-dirty.png,./visual stimuli-exp/clean/adjusted_cleaness/60-dirty-with-spots.png,./visual stimuli-exp/clean/adjusted_cleaness/45-dirty-with-spots.png,./visual stimuli-exp/clean/adjusted_cleaness/30-clean.png,./visual stimuli-exp/clean/adjusted_cleaness/15-clean.png,./visual stimuli-exp/clean/adjusted_cleaness/0-clean-spotless.png,./visual stimuli-exp/clean/adjusted_cleaness/0-spotless.png,./visual stimuli-exp/clean/adjusted_cleaness/0-spotless-light-2.png,./visual stimuli-exp/clean/adjusted_cleaness/0-spotless-light-4.png,355567,24,html-coin-betting-response,,spotless
56,Condition 1,0.0-5.0-0.0,,0,0,0,0,0,0,0,0,10,46494,"<div><img src=""./visual stimuli-exp/temperature/visualized_temperature_context/visualized_scalding.png"" height = ""270""></div><p style=""margin: 8px 0px;"">Which thermometer do you think is showing the temperature of the water in the cup? Use the ""+"" and ""&ndash;"" buttons to distribute 10 coins across the likely thermometers.</p>",,./visual stimuli-exp/temperature/adjusted_temperature/10.png,./visual stimuli-exp/temperature/adjusted_temperature/20.png,./visual stimuli-exp/temperature/adjusted_temperature/30.png,./visual stimuli-exp/temperature/adjusted_temperature/40.png,./visual stimuli-exp/temperature/adjusted_temperature/50.png,./visual stimuli-exp/temperature/adjusted_temperature/60.png,./visual stimuli-exp/temperature/adjusted_temperature/70.png,./visual stimuli-exp/temperature/adjusted_temperature/80.png,./visual stimuli-exp/temperature/adjusted_temperature/90.png,101779,5,html-coin-betting-response,,scalding
56,Condition 1,0.0-5.0-0.1,,0,0,0,1,4,5,0,0,0,38920,"<div><img src=""./visual stimuli-exp/temperature/visualized_temperature_context/visualized_warm.png"" height = ""270""></div><p style=""margin: 8px 0px;"">Which thermometer do you think is showing the temperature of the water in the cup? Use the ""+"" and ""&ndash;"" buttons to distribute 10 coins across the likely thermometers.</p>",,./visual stimuli-exp/temperature/adjusted_temperature/10.png,./visual stimuli-exp/temperature/adjusted_temperature/20.png,./visual stimuli-exp/temperature/adjusted_temperature/30.png,./visual stimuli-exp/temperature/adjusted_temperature/40.png,./visual stimuli-exp/temperature/adjusted_temperature/50.png,./visual stimuli-exp/temperature/adjusted_temperature/60.png,./visual stimuli-exp/temperature/adjusted_temperature/70.png,./visual stimuli-exp/temperature/adjusted_temperature/80.png,./visual stimuli-exp/temperature/adjusted_temperature/90.png,140704,6,html-coin-betting-response,,warm
56,Condition 1,0.0-5.0-0.2,,0,0,0,0,0,3,6,1,0,14777,"<div><img src=""./visual stimuli-exp/temperature/visualized_temperature_context/visualized_hot.png"" height = ""270""></div><p style=""margin: 8px 0px;"">Which thermometer do you think is showing the temperature of the water in the cup? Use the ""+"" and ""&ndash;"" buttons to distribute 10 coins across the likely thermometers.</p>",,./visual stimuli-exp/temperature/adjusted_temperature/10.png,./visual stimuli-exp/temperature/adjusted_temperature/20.png,./visual stimuli-exp/temperature/adjusted_temperature/30.png,./visual stimuli-exp/temperature/adjusted_temperature/40.png,./visual stimuli-exp/temperature/adjusted_temperature/50.png,./visual stimuli-exp/temperature/adjusted_temperature/60.png,./visual stimuli-exp/temperature/adjusted_temperature/70.png,./visual stimuli-exp/temperature/adjusted_temperature/80.png,./visual stimuli-exp/temperature/adjusted_temperature/90.png,155483,7,html-coin-betting-response,,hot
56,Condition 1,0.0-5.0-0.3,,0,0,0,4,4,2,0,0,0,18261,"<div><img src=""./visual stimuli-exp/temperature/visualized_temperature_context/visualized_warm.png"" height = ""270""></div><p style=""margin: 8px 0px;"">Which thermometer do you think is showing the temperature of the water in the cup? Use the ""+"" and ""&ndash;"" buttons to distribute 10 coins across the likely thermometers.</p>",,./visual stimuli-exp/temperature/adjusted_temperature/10.png,./visual stimuli-exp/temperature/adjusted_temperature/20.png,./visual stimuli-exp/temperature/adjusted_temperature/30.png,./visual stimuli-exp/temperature/adjusted_temperature/40.png,./visual stimuli-exp/temperature/adjusted_temperature/50.png,./visual stimuli-exp/temperature/adjusted_temperature/60.png,./visual stimuli-exp/temperature/adjusted_temperature/70.png,./visual stimuli-exp/temperature/adjusted_temperature/80.png,./visual stimuli-exp/temperature/adjusted_temperature/90.png,173748,8,html-coin-betting-response,,warm
56,Condition 1,0.0-5.0-0.4,,0,0,0,0,0,1,5,3,1,10913,"<div><img src=""./visual stimuli-exp/temperature/visualized_temperature_context/visualized_hot.png"" height = ""270""></div><p style=""margin: 8px 0px;"">Which thermometer do you think is showing the temperature of the water in the cup? Use the ""+"" and ""&ndash;"" buttons to distribute 10 coins across the likely thermometers.</p>",,./visual stimuli-exp/temperature/adjusted_temperature/10.png,./visual stimuli-exp/temperature/adjusted_temperature/20.png,./visual stimuli-exp/temperature/adjusted_temperature/30.png,./visual stimuli-exp/temperature/adjusted_temperature/40.png,./visual stimuli-exp/temperature/adjusted_temperature/50.png,./visual stimuli-exp/temperature/adjusted_temperature/60.png,./visual stimuli-exp/temperature/adjusted_temperature/70.png,./visual stimuli-exp/temperature/adjusted_temperature/80.png,./visual stimuli-exp/temperature/adjusted_temperature/90.png,184664,9,html-coin-betting-response,,hot
56,Condition 1,0.0-5.0-0.5,,0,0,0,0,0,0,0,2,8,12662,"<div><img src=""./visual stimuli-exp/temperature/visualized_temperature_context/visualized_scalding.png"" height = ""270""></div><p style=""margin: 8px 0px;"">Which thermometer do you think is showing the temperature of the water in the cup? Use the ""+"" and ""&ndash;"" buttons to distribute 10 coins across the likely thermometers.</p>",,./visual stimuli-exp/temperature/adjusted_temperature/10.png,./visual stimuli-exp/temperature/adjusted_temperature/20.png,./visual stimuli-exp/temperature/adjusted_temperature/30.png,./visual stimuli-exp/temperature/adjusted_temperature/40.png,./visual stimuli-exp/temperature/adjusted_temperature/50.png,./visual stimuli-exp/temperature/adjusted_temperature/60.png,./visual stimuli-exp/temperature/adjusted_temperature/70.png,./visual stimuli-exp/temperature/adjusted_temperature/80.png,./visual stimuli-exp/temperature/adjusted_temperature/90.png,197328,10,html-coin-betting-response,,scalding
56,Condition 1,0.0-7.0-0.0,,0,0,0,0,0,0,1,3,6,19579,"<div><img src=""./visual stimuli-exp/grades/visualized_grades_context/visualized_perfect.png"" height = ""330""></div><p style=""margin: 8px 0px;"">Which examination sheet do you think is on the desk? Use the ""+"" and ""&ndash;"" buttons to distribute 10 coins across the likely examination sheets.</p>",,./visual stimuli-exp/grades/adjusted_grades/30_wrong.png,./visual stimuli-exp/grades/adjusted_grades/13_wrong.png,./visual stimuli-exp/grades/adjusted_grades/11_wrong.png,./visual stimuli-exp/grades/adjusted_grades/9_wrong.png,./visual stimuli-exp/grades/adjusted_grades/7_wrong.png,./visual stimuli-exp/grades/adjusted_grades/5_wrong.png,./visual stimuli-exp/grades/adjusted_grades/3_wrong.png,./visual stimuli-exp/grades/adjusted_grades/1_wrong.png,./visual stimuli-exp/grades/adjusted_grades/0_wrong.png,234156,12,html-coin-betting-response,,perfect
56,Condition 1,0.0-7.0-0.1,,0,0,0,0,1,6,3,0,0,13218,"<div><img src=""./visual stimuli-exp/grades/visualized_grades_context/visualized_good.png"" height = ""330""></div><p style=""margin: 8px 0px;"">Which examination sheet do you think is on the desk? Use the ""+"" and ""&ndash;"" buttons to distribute 10 coins across the likely examination sheets.</p>",,./visual stimuli-exp/grades/adjusted_grades/30_wrong.png,./visual stimuli-exp/grades/adjusted_grades/13_wrong.png,./visual stimuli-exp/grades/adjusted_grades/11_wrong.png,./visual stimuli-exp/grades/adjusted_grades/9_wrong.png,./visual stimuli-exp/grades/adjusted_grades/7_wrong.png,./visual stimuli-exp/grades/adjusted_grades/5_wrong.png,./visual stimuli-exp/grades/adjusted_grades/3_wrong.png,./visual stimuli-exp/grades/adjusted_grades/1_wrong.png,./visual stimuli-exp/grades/adjusted_grades/0_wrong.png,247378,13,html-coin-betting-response,,good
56,Condition 1,0.0-7.0-0.2,,0,0,0,0,0,0,5,4,1,11941,"<div><img src=""./visual stimuli-exp/grades/visualized_grades_context/visualized_excellent.png"" height = ""330""></div><p style=""margin: 8px 0px;"">Which examination sheet do you think is on the desk? Use the ""+"" and ""&ndash;"" buttons to distribute 10 coins across the likely examination sheets.</p>",,./visual stimuli-exp/grades/adjusted_grades/30_wrong.png,./visual stimuli-exp/grades/adjusted_grades/13_wrong.png,./visual stimuli-exp/grades/adjusted_grades/11_wrong.png,./visual stimuli-exp/grades/adjusted_grades/9_wrong.png,./visual stimuli-exp/grades/adjusted_grades/7_wrong.png,./visual stimuli-exp/grades/adjusted_grades/5_wrong.png,./visual stimuli-exp/grades/adjusted_grades/3_wrong.png,./visual stimuli-exp/grades/adjusted_grades/1_wrong.png,./visual stimuli-exp/grades/adjusted_grades/0_wrong.png,259321,14,html-coin-betting-response,,excellent
56,Condition 1,0.0-7.0-0.3,,0,0,0,0,2,6,2,0,0,15474,"<div><img src=""./visual stimuli-exp/grades/visualized_grades_context/visualized_good.png"" height = ""330""></div><p style=""margin: 8px 0px;"">Which examination sheet do you think is on the desk? Use the ""+"" and ""&ndash;"" buttons to distribute 10 coins across the likely examination sheets.</p>",,./visual stimuli-exp/grades/adjusted_grades/30_wrong.png,./visual stimuli-exp/grades/adjusted_grades/13_wrong.png,./visual stimuli-exp/grades/adjusted_grades/11_wrong.png,./visual stimuli-exp/grades/adjusted_grades/9_wrong.png,./visual stimuli-exp/grades/adjusted_grades/7_wrong.png,./visual stimuli-exp/grades/adjusted_grades/5_wrong.png,./visual stimuli-exp/grades/adjusted_grades/3_wrong.png,./visual stimuli-exp/grades/adjusted_grades/1_wrong.png,./visual stimuli-exp/grades/adjusted_grades/0_wrong.png,274797,15,html-coin-betting-response,,good
56,Condition 1,0.0-7.0-0.4,,0,0,0,0,0,0,2,3,5,9456,"<div><img src=""./visual stimuli-exp/grades/visualized_grades_context/visualized_perfect.png"" height = ""330""></div><p style=""margin: 8px 0px;"">Which examination sheet do you think is on the desk? Use the ""+"" and ""&ndash;"" buttons to distribute 10 coins across the likely examination sheets.</p>",,./visual stimuli-exp/grades/adjusted_grades/30_wrong.png,./visual stimuli-exp/grades/adjusted_grades/13_wrong.png,./visual stimuli-exp/grades/adjusted_grades/11_wrong.png,./visual stimuli-exp/grades/adjusted_grades/9_wrong.png,./visual stimuli-exp/grades/adjusted_grades/7_wrong.png,./visual stimuli-exp/grades/adjusted_grades/5_wrong.png,./visual stimuli-exp/grades/adjusted_grades/3_wrong.png,./visual stimuli-exp/grades/adjusted_grades/1_wrong.png,./visual stimuli-exp/grades/adjusted_grades/0_wrong.png,284255,16,html-coin-betting-response,,perfect
56,Condition 1,0.0-7.0-0.5,,0,0,0,0,0,0,4,4,2,14262,"<div><img src=""./visual stimuli-exp/grades/visualized_grades_context/visualized_excellent.png"" height = ""330""></div><p style=""margin: 8px 0px;"">Which examination sheet do you think is on the desk? Use the ""+"" and ""&ndash;"" buttons to distribute 10 coins across the likely examination sheets.</p>",,./visual stimuli-exp/grades/adjusted_grades/30_wrong.png,./visual stimuli-exp/grades/adjusted_grades/13_wrong.png,./visual stimuli-exp/grades/adjusted_grades/11_wrong.png,./visual stimuli-exp/grades/adjusted_grades/9_wrong.png,./visual stimuli-exp/grades/adjusted_grades/7_wrong.png,./visual stimuli-exp/grades/adjusted_grades/5_wrong.png,./visual stimuli-exp/grades/adjusted_grades/3_wrong.png,./visual stimuli-exp/grades/adjusted_grades/1_wrong.png,./visual stimuli-exp/grades/adjusted_grades/0_wrong.png,298518,17,html-coin-betting-response,,excellent
56,Condition 1,0.0-9.0-0.0,,0,0,0,0,0,0,0,0,10,14353,"<div><img src=""./visual stimuli-exp/clean/visualized_cleaness_context/visualized_spotless.png"" height = ""310""></div><p style=""margin: 8px 0px;"">Which window do you think the man is looking at? Use the ""+"" and ""&ndash;"" buttons to distribute 10 coins across the likely windows.</p>",,./visual stimuli-exp/clean/adjusted_cleaness/100-dirty.png,./visual stimuli-exp/clean/adjusted_cleaness/60-dirty-with-spots.png,./visual stimuli-exp/clean/adjusted_cleaness/45-dirty-with-spots.png,./visual stimuli-exp/clean/adjusted_cleaness/30-clean.png,./visual stimuli-exp/clean/adjusted_cleaness/15-clean.png,./visual stimuli-exp/clean/adjusted_cleaness/0-clean-spotless.png,./visual stimuli-exp/clean/adjusted_cleaness/0-spotless.png,./visual stimuli-exp/clean/adjusted_cleaness/0-spotless-light-2.png,./visual stimuli-exp/clean/adjusted_cleaness/0-spotless-light-4.png,331469,19,html-coin-betting-response,,spotless
56,Condition 1,0.0-9.0-0.1,,0,0,0,0,0,0,5,3,2,15187,"<div><img src=""./visual stimuli-exp/clean/visualized_cleaness_context/visualized_clean.png"" height = ""310""></div><p style=""margin: 8px 0px;"">Which window do you think the man is looking at? Use the ""+"" and ""&ndash;"" buttons to distribute 10 coins across the likely windows.</p>",,./visual stimuli-exp/clean/adjusted_cleaness/100-dirty.png,./visual stimuli-exp/clean/adjusted_cleaness/60-dirty-with-spots.png,./visual stimuli-exp/clean/adjusted_cleaness/45-dirty-with-spots.png,./visual stimuli-exp/clean/adjusted_cleaness/30-clean.png,./visual stimuli-exp/clean/adjusted_cleaness/15-clean.png,./visual stimuli-exp/clean/adjusted_cleaness/0-clean-spotless.png,./visual stimuli-exp/clean/adjusted_cleaness/0-spotless.png,./visual stimuli-exp/clean/adjusted_cleaness/0-spotless-light-2.png,./visual stimuli-exp/clean/adjusted_cleaness/0-spotless-light-4.png,346659,20,html-coin-betting-response,,clean
