workerid,proliferate.condition,internal_node_id,response,response_0,response_1,response_2,response_3,rt,slider_0,slider_1,slider_2,slider_3,slider_start,stimulus,success,time_elapsed,trial_index,trial_type,error,scale_value
11,Condition 1,0.0-5.0-0.0,,75,0,0,25,24054,It is warm,It is hot,It is scalding,<em>Something else</em>,0,"<div><img src=""./visual stimuli-exp/temperature/10degree.png"" height = ""450""></div><p>How likely do you think it is that the waiter will respond with each of the utterances below?</p>",,82906,5,html-multi-slider-response,,1
11,Condition 1,0.0-5.0-0.1,,75,1,1,23,30749,It is warm,It is hot,It is scalding,<em>Something else</em>,0,"<div><img src=""./visual stimuli-exp/temperature/50degree.png"" height = ""450""></div><p>How likely do you think it is that the waiter will respond with each of the utterances below?</p>",,113657,6,html-multi-slider-response,,5
11,Condition 1,0.0-5.0-0.2,,78,1,1,20,23543,It is warm,It is hot,It is scalding,<em>Something else</em>,0,"<div><img src=""./visual stimuli-exp/temperature/90degree.png"" height = ""450""></div><p>How likely do you think it is that the waiter will respond with each of the utterances below?</p>",,137201,7,html-multi-slider-response,,9
11,Condition 1,0.0-5.0-0.3,,78,1,1,20,33359,It is warm,It is hot,It is scalding,<em>Something else</em>,0,"<div><img src=""./visual stimuli-exp/temperature/30degree.png"" height = ""450""></div><p>How likely do you think it is that the waiter will respond with each of the utterances below?</p>",,170561,8,html-multi-slider-response,,3
11,Condition 1,0.0-5.0-0.4,,80,0,0,20,22638,It is warm,It is hot,It is scalding,<em>Something else</em>,0,"<div><img src=""./visual stimuli-exp/temperature/40degree.png"" height = ""450""></div><p>How likely do you think it is that the waiter will respond with each of the utterances below?</p>",,193201,9,html-multi-slider-response,,4
11,Condition 1,0.0-5.0-0.5,,10,80,0,10,25831,It is warm,It is hot,It is scalding,<em>Something else</em>,0,"<div><img src=""./visual stimuli-exp/temperature/70degree.png"" height = ""450""></div><p>How likely do you think it is that the waiter will respond with each of the utterances below?</p>",,219034,10,html-multi-slider-response,,7
11,Condition 1,0.0-5.0-0.6,,10,80,0,10,20087,It is warm,It is hot,It is scalding,<em>Something else</em>,0,"<div><img src=""./visual stimuli-exp/temperature/60degree.png"" height = ""450""></div><p>How likely do you think it is that the waiter will respond with each of the utterances below?</p>",,239121,11,html-multi-slider-response,,6
11,Condition 1,0.0-5.0-0.7,,80,0,0,20,18079,It is warm,It is hot,It is scalding,<em>Something else</em>,0,"<div><img src=""./visual stimuli-exp/temperature/20degree.png"" height = ""450""></div><p>How likely do you think it is that the waiter will respond with each of the utterances below?</p>",,257201,12,html-multi-slider-response,,2
11,Condition 1,0.0-5.0-0.8,,0,90,0,10,16775,It is warm,It is hot,It is scalding,<em>Something else</em>,0,"<div><img src=""./visual stimuli-exp/temperature/80degree.png"" height = ""450""></div><p>How likely do you think it is that the waiter will respond with each of the utterances below?</p>",,273977,13,html-multi-slider-response,,8
11,Condition 1,0.0-5.0-0.9,,10,80,0,10,21389,It is warm,It is hot,It is scalding,<em>Something else</em>,0,"<div><img src=""./visual stimuli-exp/temperature/70degree.png"" height = ""450""></div><p>How likely do you think it is that the waiter will respond with each of the utterances below?</p>",,295369,14,html-multi-slider-response,,7
11,Condition 1,0.0-5.0-0.10,,90,0,0,10,12672,It is warm,It is hot,It is scalding,<em>Something else</em>,0,"<div><img src=""./visual stimuli-exp/temperature/30degree.png"" height = ""450""></div><p>How likely do you think it is that the waiter will respond with each of the utterances below?</p>",,308041,15,html-multi-slider-response,,3
11,Condition 1,0.0-5.0-0.11,,50,40,0,10,17262,It is warm,It is hot,It is scalding,<em>Something else</em>,0,"<div><img src=""./visual stimuli-exp/temperature/60degree.png"" height = ""450""></div><p>How likely do you think it is that the waiter will respond with each of the utterances below?</p>",,325305,16,html-multi-slider-response,,6
11,Condition 1,0.0-5.0-0.12,,50,40,0,10,29183,It is warm,It is hot,It is scalding,<em>Something else</em>,0,"<div><img src=""./visual stimuli-exp/temperature/50degree.png"" height = ""450""></div><p>How likely do you think it is that the waiter will respond with each of the utterances below?</p>",,354489,17,html-multi-slider-response,,5
11,Condition 1,0.0-5.0-0.13,,80,0,0,20,13135,It is warm,It is hot,It is scalding,<em>Something else</em>,0,"<div><img src=""./visual stimuli-exp/temperature/20degree.png"" height = ""450""></div><p>How likely do you think it is that the waiter will respond with each of the utterances below?</p>",,367625,18,html-multi-slider-response,,2
11,Condition 1,0.0-5.0-0.14,,0,90,0,10,9951,It is warm,It is hot,It is scalding,<em>Something else</em>,0,"<div><img src=""./visual stimuli-exp/temperature/80degree.png"" height = ""450""></div><p>How likely do you think it is that the waiter will respond with each of the utterances below?</p>",,377577,19,html-multi-slider-response,,8
11,Condition 1,0.0-5.0-0.15,,0,60,30,10,40759,It is warm,It is hot,It is scalding,<em>Something else</em>,0,"<div><img src=""./visual stimuli-exp/temperature/90degree.png"" height = ""450""></div><p>How likely do you think it is that the waiter will respond with each of the utterances below?</p>",,418337,20,html-multi-slider-response,,9
11,Condition 1,0.0-5.0-0.16,,90,0,0,10,24071,It is warm,It is hot,It is scalding,<em>Something else</em>,0,"<div><img src=""./visual stimuli-exp/temperature/40degree.png"" height = ""450""></div><p>How likely do you think it is that the waiter will respond with each of the utterances below?</p>",,442409,21,html-multi-slider-response,,4
11,Condition 1,0.0-5.0-0.17,,11,0,0,89,22822,It is warm,It is hot,It is scalding,<em>Something else</em>,0,"<div><img src=""./visual stimuli-exp/temperature/10degree.png"" height = ""450""></div><p>How likely do you think it is that the waiter will respond with each of the utterances below?</p>",,465233,22,html-multi-slider-response,,1
11,Condition 1,0.0-7.0-0.0,,80,10,0,10,19111,He is a good student,He is an excellent student,He is a perfect student,<em>Something else</em>,0,"<div><img src=""./visual stimuli-exp/grades/9wrong.png"" height = ""450""></div><p>How likely do you think it is that the girl will respond with each of the utterances below?</p>",,504361,24,html-multi-slider-response,,4
11,Condition 1,0.0-7.0-0.1,,10,80,5,5,49127,He is a good student,He is an excellent student,He is a perfect student,<em>Something else</em>,0,"<div><img src=""./visual stimuli-exp/grades/3wrong.png"" height = ""450""></div><p>How likely do you think it is that the girl will respond with each of the utterances below?</p>",,553489,25,html-multi-slider-response,,7
11,Condition 1,0.0-7.0-0.2,,10,70,15,5,33519,He is a good student,He is an excellent student,He is a perfect student,<em>Something else</em>,0,"<div><img src=""./visual stimuli-exp/grades/5wrong.png"" height = ""450""></div><p>How likely do you think it is that the girl will respond with each of the utterances below?</p>",,587009,26,html-multi-slider-response,,6
11,Condition 1,0.0-7.0-0.3,,0,0,0,100,7566,He is a good student,He is an excellent student,He is a perfect student,<em>Something else</em>,0,"<div><img src=""./visual stimuli-exp/grades/30wrong.png"" height = ""450""></div><p>How likely do you think it is that the girl will respond with each of the utterances below?</p>",,594577,27,html-multi-slider-response,,1
11,Condition 1,0.0-7.0-0.4,,0,85,10,5,21088,He is a good student,He is an excellent student,He is a perfect student,<em>Something else</em>,0,"<div><img src=""./visual stimuli-exp/grades/1wrong.png"" height = ""450""></div><p>How likely do you think it is that the girl will respond with each of the utterances below?</p>",,615664,28,html-multi-slider-response,,8
11,Condition 1,0.0-7.0-0.5,,75,0,0,25,23759,He is a good student,He is an excellent student,He is a perfect student,<em>Something else</em>,0,"<div><img src=""./visual stimuli-exp/grades/11wrong.png"" height = ""450""></div><p>How likely do you think it is that the girl will respond with each of the utterances below?</p>",,639424,29,html-multi-slider-response,,3
11,Condition 1,0.0-7.0-0.6,,75,10,0,15,18687,He is a good student,He is an excellent student,He is a perfect student,<em>Something else</em>,0,"<div><img src=""./visual stimuli-exp/grades/7wrong.png"" height = ""450""></div><p>How likely do you think it is that the girl will respond with each of the utterances below?</p>",,658112,30,html-multi-slider-response,,5
11,Condition 1,0.0-7.0-0.7,,0,0,100,0,7695,He is a good student,He is an excellent student,He is a perfect student,<em>Something else</em>,0,"<div><img src=""./visual stimuli-exp/grades/0wrong.png"" height = ""450""></div><p>How likely do you think it is that the girl will respond with each of the utterances below?</p>",,665809,31,html-multi-slider-response,,9
11,Condition 1,0.0-7.0-0.8,,40,0,0,60,13391,He is a good student,He is an excellent student,He is a perfect student,<em>Something else</em>,0,"<div><img src=""./visual stimuli-exp/grades/13wrong.png"" height = ""450""></div><p>How likely do you think it is that the girl will respond with each of the utterances below?</p>",,679201,32,html-multi-slider-response,,2
11,Condition 1,0.0-7.0-0.9,,30,0,0,70,11117,He is a good student,He is an excellent student,He is a perfect student,<em>Something else</em>,0,"<div><img src=""./visual stimuli-exp/grades/13wrong.png"" height = ""450""></div><p>How likely do you think it is that the girl will respond with each of the utterances below?</p>",,690320,33,html-multi-slider-response,,2
11,Condition 1,0.0-7.0-0.10,,0,45,50,5,39903,He is a good student,He is an excellent student,He is a perfect student,<em>Something else</em>,0,"<div><img src=""./visual stimuli-exp/grades/1wrong.png"" height = ""450""></div><p>How likely do you think it is that the girl will respond with each of the utterances below?</p>",,730224,34,html-multi-slider-response,,8
11,Condition 1,0.0-7.0-0.11,,60,30,0,10,19327,He is a good student,He is an excellent student,He is a perfect student,<em>Something else</em>,0,"<div><img src=""./visual stimuli-exp/grades/5wrong.png"" height = ""450""></div><p>How likely do you think it is that the girl will respond with each of the utterances below?</p>",,749552,35,html-multi-slider-response,,6
11,Condition 1,0.0-7.0-0.12,,60,0,0,40,17847,He is a good student,He is an excellent student,He is a perfect student,<em>Something else</em>,0,"<div><img src=""./visual stimuli-exp/grades/11wrong.png"" height = ""450""></div><p>How likely do you think it is that the girl will respond with each of the utterances below?</p>",,767400,36,html-multi-slider-response,,3
11,Condition 1,0.0-7.0-0.13,,0,0,0,100,5791,He is a good student,He is an excellent student,He is a perfect student,<em>Something else</em>,0,"<div><img src=""./visual stimuli-exp/grades/30wrong.png"" height = ""450""></div><p>How likely do you think it is that the girl will respond with each of the utterances below?</p>",,773192,37,html-multi-slider-response,,1
11,Condition 1,0.0-7.0-0.14,,25,70,0,5,23119,He is a good student,He is an excellent student,He is a perfect student,<em>Something else</em>,0,"<div><img src=""./visual stimuli-exp/grades/3wrong.png"" height = ""450""></div><p>How likely do you think it is that the girl will respond with each of the utterances below?</p>",,796313,38,html-multi-slider-response,,7
11,Condition 1,0.0-7.0-0.15,,65,30,0,5,19864,He is a good student,He is an excellent student,He is a perfect student,<em>Something else</em>,0,"<div><img src=""./visual stimuli-exp/grades/7wrong.png"" height = ""450""></div><p>How likely do you think it is that the girl will respond with each of the utterances below?</p>",,816177,39,html-multi-slider-response,,5
11,Condition 1,0.0-7.0-0.16,,0,0,95,5,12198,He is a good student,He is an excellent student,He is a perfect student,<em>Something else</em>,0,"<div><img src=""./visual stimuli-exp/grades/0wrong.png"" height = ""450""></div><p>How likely do you think it is that the girl will respond with each of the utterances below?</p>",,828376,40,html-multi-slider-response,,9
11,Condition 1,0.0-7.0-0.17,,45,50,0,5,13999,He is a good student,He is an excellent student,He is a perfect student,<em>Something else</em>,0,"<div><img src=""./visual stimuli-exp/grades/9wrong.png"" height = ""450""></div><p>How likely do you think it is that the girl will respond with each of the utterances below?</p>",,842376,41,html-multi-slider-response,,4
11,Condition 1,0.0-9.0-0.0,,0,90,0,10,18388,They are cleanish,They are clean,They are spotless,<em>Something else</em>,0,"<div><img src=""./visual stimuli-exp/clean/0spotless.png"" height = ""450""></div><p>How likely do you think it is that the man will respond with each of the utterances below?</p>",,1024384,43,html-multi-slider-response,,7
11,Condition 1,0.0-9.0-0.1,,40,55,0,5,30511,They are cleanish,They are clean,They are spotless,<em>Something else</em>,0,"<div><img src=""./visual stimuli-exp/clean/0clean-or-spotless.png"" height = ""450""></div><p>How likely do you think it is that the man will respond with each of the utterances below?</p>",,1054896,44,html-multi-slider-response,,6
11,Condition 1,0.0-9.0-0.2,,0,0,0,100,6599,They are cleanish,They are clean,They are spotless,<em>Something else</em>,0,"<div><img src=""./visual stimuli-exp/clean/60dirty-withspots.png"" height = ""450""></div><p>How likely do you think it is that the man will respond with each of the utterances below?</p>",,1061496,45,html-multi-slider-response,,2
11,Condition 1,0.0-9.0-0.3,,0,0,0,100,6855,They are cleanish,They are clean,They are spotless,<em>Something else</em>,0,"<div><img src=""./visual stimuli-exp/clean/45dirty-withspots.png"" height = ""450""></div><p>How likely do you think it is that the man will respond with each of the utterances below?</p>",,1068352,46,html-multi-slider-response,,3
11,Condition 1,0.0-9.0-0.4,,20,0,0,80,13591,They are cleanish,They are clean,They are spotless,<em>Something else</em>,0,"<div><img src=""./visual stimuli-exp/clean/15clean.png"" height = ""450""></div><p>How likely do you think it is that the man will respond with each of the utterances below?</p>",,1081945,47,html-multi-slider-response,,5
11,Condition 1,0.0-9.0-0.5,,0,0,90,10,14759,They are cleanish,They are clean,They are spotless,<em>Something else</em>,0,"<div><img src=""./visual stimuli-exp/clean/0spotless-light2.png"" height = ""450""></div><p>How likely do you think it is that the man will respond with each of the utterances below?</p>",,1096705,48,html-multi-slider-response,,8
11,Condition 1,0.0-9.0-0.6,,20,0,0,80,15119,They are cleanish,They are clean,They are spotless,<em>Something else</em>,0,"<div><img src=""./visual stimuli-exp/clean/30clean.png"" height = ""450""></div><p>How likely do you think it is that the man will respond with each of the utterances below?</p>",,1111825,49,html-multi-slider-response,,4
11,Condition 1,0.0-9.0-0.7,,0,0,0,100,5175,They are cleanish,They are clean,They are spotless,<em>Something else</em>,0,"<div><img src=""./visual stimuli-exp/clean/100dirty.png"" height = ""450""></div><p>How likely do you think it is that the man will respond with each of the utterances below?</p>",,1117001,50,html-multi-slider-response,,1
11,Condition 1,0.0-9.0-0.8,,0,0,95,5,9327,They are cleanish,They are clean,They are spotless,<em>Something else</em>,0,"<div><img src=""./visual stimuli-exp/clean/0spotless-light4.png"" height = ""450""></div><p>How likely do you think it is that the man will respond with each of the utterances below?</p>",,1126329,51,html-multi-slider-response,,9
11,Condition 1,0.0-9.0-0.9,,0,80,15,5,14318,They are cleanish,They are clean,They are spotless,<em>Something else</em>,0,"<div><img src=""./visual stimuli-exp/clean/0spotless.png"" height = ""450""></div><p>How likely do you think it is that the man will respond with each of the utterances below?</p>",,1140648,52,html-multi-slider-response,,7
11,Condition 1,0.0-9.0-0.10,,0,0,0,100,6671,They are cleanish,They are clean,They are spotless,<em>Something else</em>,0,"<div><img src=""./visual stimuli-exp/clean/60dirty-withspots.png"" height = ""450""></div><p>How likely do you think it is that the man will respond with each of the utterances below?</p>",,1147320,53,html-multi-slider-response,,2
11,Condition 1,0.0-9.0-0.11,,0,0,90,10,10095,They are cleanish,They are clean,They are spotless,<em>Something else</em>,0,"<div><img src=""./visual stimuli-exp/clean/0spotless-light4.png"" height = ""450""></div><p>How likely do you think it is that the man will respond with each of the utterances below?</p>",,1157416,54,html-multi-slider-response,,9
11,Condition 1,0.0-9.0-0.12,,20,0,0,80,13895,They are cleanish,They are clean,They are spotless,<em>Something else</em>,0,"<div><img src=""./visual stimuli-exp/clean/30clean.png"" height = ""450""></div><p>How likely do you think it is that the man will respond with each of the utterances below?</p>",,1171312,55,html-multi-slider-response,,4
11,Condition 1,0.0-9.0-0.13,,20,75,0,5,16479,They are cleanish,They are clean,They are spotless,<em>Something else</em>,0,"<div><img src=""./visual stimuli-exp/clean/0clean-or-spotless.png"" height = ""450""></div><p>How likely do you think it is that the man will respond with each of the utterances below?</p>",,1187792,56,html-multi-slider-response,,6
11,Condition 1,0.0-9.0-0.14,,0,0,0,100,4239,They are cleanish,They are clean,They are spotless,<em>Something else</em>,0,"<div><img src=""./visual stimuli-exp/clean/100dirty.png"" height = ""450""></div><p>How likely do you think it is that the man will respond with each of the utterances below?</p>",,1192032,57,html-multi-slider-response,,1
11,Condition 1,0.0-9.0-0.15,,20,0,0,80,15031,They are cleanish,They are clean,They are spotless,<em>Something else</em>,0,"<div><img src=""./visual stimuli-exp/clean/15clean.png"" height = ""450""></div><p>How likely do you think it is that the man will respond with each of the utterances below?</p>",,1207064,58,html-multi-slider-response,,5
11,Condition 1,0.0-9.0-0.16,,10,0,0,90,10302,They are cleanish,They are clean,They are spotless,<em>Something else</em>,0,"<div><img src=""./visual stimuli-exp/clean/45dirty-withspots.png"" height = ""450""></div><p>How likely do you think it is that the man will respond with each of the utterances below?</p>",,1217368,59,html-multi-slider-response,,3
11,Condition 1,0.0-9.0-0.17,,0,80,10,10,22551,They are cleanish,They are clean,They are spotless,<em>Something else</em>,0,"<div><img src=""./visual stimuli-exp/clean/0spotless-light2.png"" height = ""450""></div><p>How likely do you think it is that the man will respond with each of the utterances below?</p>",,1239920,60,html-multi-slider-response,,8
22,Condition 1,0.0-5.0-0.0,,10,90,0,0,13941,It is warm,It is hot,It is scalding,<em>Something else</em>,0,"<div><img src=""./visual stimuli-exp/temperature/90degree.png"" height = ""450""></div><p>How likely do you think it is that the waiter will respond with each of the utterances below?</p>",,48044,5,html-multi-slider-response,,9
22,Condition 1,0.0-5.0-0.1,,10,90,0,0,12381,It is warm,It is hot,It is scalding,<em>Something else</em>,0,"<div><img src=""./visual stimuli-exp/temperature/80degree.png"" height = ""450""></div><p>How likely do you think it is that the waiter will respond with each of the utterances below?</p>",,60426,6,html-multi-slider-response,,8
22,Condition 1,0.0-5.0-0.2,,0,0,0,100,6869,It is warm,It is hot,It is scalding,<em>Something else</em>,0,"<div><img src=""./visual stimuli-exp/temperature/10degree.png"" height = ""450""></div><p>How likely do you think it is that the waiter will respond with each of the utterances below?</p>",,67296,7,html-multi-slider-response,,1
22,Condition 1,0.0-5.0-0.3,,80,0,0,20,13116,It is warm,It is hot,It is scalding,<em>Something else</em>,0,"<div><img src=""./visual stimuli-exp/temperature/40degree.png"" height = ""450""></div><p>How likely do you think it is that the waiter will respond with each of the utterances below?</p>",,80413,8,html-multi-slider-response,,4
22,Condition 1,0.0-5.0-0.4,,95,5,0,0,13469,It is warm,It is hot,It is scalding,<em>Something else</em>,0,"<div><img src=""./visual stimuli-exp/temperature/50degree.png"" height = ""450""></div><p>How likely do you think it is that the waiter will respond with each of the utterances below?</p>",,93883,9,html-multi-slider-response,,5
22,Condition 1,0.0-5.0-0.5,,0,0,0,100,5414,It is warm,It is hot,It is scalding,<em>Something else</em>,0,"<div><img src=""./visual stimuli-exp/temperature/20degree.png"" height = ""450""></div><p>How likely do you think it is that the waiter will respond with each of the utterances below?</p>",,99298,10,html-multi-slider-response,,2
22,Condition 1,0.0-5.0-0.6,,50,50,0,0,9757,It is warm,It is hot,It is scalding,<em>Something else</em>,0,"<div><img src=""./visual stimuli-exp/temperature/70degree.png"" height = ""450""></div><p>How likely do you think it is that the waiter will respond with each of the utterances below?</p>",,109055,11,html-multi-slider-response,,7
22,Condition 1,0.0-5.0-0.7,,10,0,0,90,10064,It is warm,It is hot,It is scalding,<em>Something else</em>,0,"<div><img src=""./visual stimuli-exp/temperature/30degree.png"" height = ""450""></div><p>How likely do you think it is that the waiter will respond with each of the utterances below?</p>",,119121,12,html-multi-slider-response,,3
22,Condition 1,0.0-5.0-0.8,,90,0,0,10,16319,It is warm,It is hot,It is scalding,<em>Something else</em>,0,"<div><img src=""./visual stimuli-exp/temperature/60degree.png"" height = ""450""></div><p>How likely do you think it is that the waiter will respond with each of the utterances below?</p>",,135441,13,html-multi-slider-response,,6
22,Condition 1,0.0-5.0-0.9,,90,0,0,10,8727,It is warm,It is hot,It is scalding,<em>Something else</em>,0,"<div><img src=""./visual stimuli-exp/temperature/60degree.png"" height = ""450""></div><p>How likely do you think it is that the waiter will respond with each of the utterances below?</p>",,144171,14,html-multi-slider-response,,6
22,Condition 1,0.0-5.0-0.10,,0,0,0,100,6262,It is warm,It is hot,It is scalding,<em>Something else</em>,0,"<div><img src=""./visual stimuli-exp/temperature/20degree.png"" height = ""450""></div><p>How likely do you think it is that the waiter will respond with each of the utterances below?</p>",,150434,15,html-multi-slider-response,,2
22,Condition 1,0.0-5.0-0.11,,0,0,0,100,4763,It is warm,It is hot,It is scalding,<em>Something else</em>,0,"<div><img src=""./visual stimuli-exp/temperature/30degree.png"" height = ""450""></div><p>How likely do you think it is that the waiter will respond with each of the utterances below?</p>",,155198,16,html-multi-slider-response,,3
22,Condition 1,0.0-5.0-0.12,,5,0,0,95,8765,It is warm,It is hot,It is scalding,<em>Something else</em>,0,"<div><img src=""./visual stimuli-exp/temperature/40degree.png"" height = ""450""></div><p>How likely do you think it is that the waiter will respond with each of the utterances below?</p>",,163964,17,html-multi-slider-response,,4
22,Condition 1,0.0-5.0-0.13,,10,80,10,0,10919,It is warm,It is hot,It is scalding,<em>Something else</em>,0,"<div><img src=""./visual stimuli-exp/temperature/90degree.png"" height = ""450""></div><p>How likely do you think it is that the waiter will respond with each of the utterances below?</p>",,174884,18,html-multi-slider-response,,9
22,Condition 1,0.0-5.0-0.14,,100,0,0,0,28596,It is warm,It is hot,It is scalding,<em>Something else</em>,0,"<div><img src=""./visual stimuli-exp/temperature/50degree.png"" height = ""450""></div><p>How likely do you think it is that the waiter will respond with each of the utterances below?</p>",,203482,19,html-multi-slider-response,,5
22,Condition 1,0.0-5.0-0.15,,80,20,0,0,15403,It is warm,It is hot,It is scalding,<em>Something else</em>,0,"<div><img src=""./visual stimuli-exp/temperature/80degree.png"" height = ""450""></div><p>How likely do you think it is that the waiter will respond with each of the utterances below?</p>",,218886,20,html-multi-slider-response,,8
22,Condition 1,0.0-5.0-0.16,,0,0,0,100,3712,It is warm,It is hot,It is scalding,<em>Something else</em>,0,"<div><img src=""./visual stimuli-exp/temperature/10degree.png"" height = ""450""></div><p>How likely do you think it is that the waiter will respond with each of the utterances below?</p>",,222599,21,html-multi-slider-response,,1
22,Condition 1,0.0-5.0-0.17,,90,10,0,0,10318,It is warm,It is hot,It is scalding,<em>Something else</em>,0,"<div><img src=""./visual stimuli-exp/temperature/70degree.png"" height = ""450""></div><p>How likely do you think it is that the waiter will respond with each of the utterances below?</p>",,232919,22,html-multi-slider-response,,7
22,Condition 1,0.0-7.0-0.0,,80,0,0,20,10885,He is a good student,He is an excellent student,He is a perfect student,<em>Something else</em>,0,"<div><img src=""./visual stimuli-exp/grades/9wrong.png"" height = ""450""></div><p>How likely do you think it is that the girl will respond with each of the utterances below?</p>",,247004,24,html-multi-slider-response,,4
22,Condition 1,0.0-7.0-0.1,,50,0,0,50,7375,He is a good student,He is an excellent student,He is a perfect student,<em>Something else</em>,0,"<div><img src=""./visual stimuli-exp/grades/13wrong.png"" height = ""450""></div><p>How likely do you think it is that the girl will respond with each of the utterances below?</p>",,254390,25,html-multi-slider-response,,2
22,Condition 1,0.0-7.0-0.2,,20,80,0,0,11302,He is a good student,He is an excellent student,He is a perfect student,<em>Something else</em>,0,"<div><img src=""./visual stimuli-exp/grades/5wrong.png"" height = ""450""></div><p>How likely do you think it is that the girl will respond with each of the utterances below?</p>",,265694,26,html-multi-slider-response,,6
22,Condition 1,0.0-7.0-0.3,,20,80,0,0,10851,He is a good student,He is an excellent student,He is a perfect student,<em>Something else</em>,0,"<div><img src=""./visual stimuli-exp/grades/7wrong.png"" height = ""450""></div><p>How likely do you think it is that the girl will respond with each of the utterances below?</p>",,276547,27,html-multi-slider-response,,5
22,Condition 1,0.0-7.0-0.4,,0,0,0,100,4753,He is a good student,He is an excellent student,He is a perfect student,<em>Something else</em>,0,"<div><img src=""./visual stimuli-exp/grades/30wrong.png"" height = ""450""></div><p>How likely do you think it is that the girl will respond with each of the utterances below?</p>",,281301,28,html-multi-slider-response,,1
22,Condition 1,0.0-7.0-0.5,,0,0,100,0,3921,He is a good student,He is an excellent student,He is a perfect student,<em>Something else</em>,0,"<div><img src=""./visual stimuli-exp/grades/0wrong.png"" height = ""450""></div><p>How likely do you think it is that the girl will respond with each of the utterances below?</p>",,285223,29,html-multi-slider-response,,9
22,Condition 1,0.0-7.0-0.6,,90,5,0,5,9427,He is a good student,He is an excellent student,He is a perfect student,<em>Something else</em>,0,"<div><img src=""./visual stimuli-exp/grades/11wrong.png"" height = ""450""></div><p>How likely do you think it is that the girl will respond with each of the utterances below?</p>",,294651,30,html-multi-slider-response,,3
22,Condition 1,0.0-7.0-0.7,,0,90,10,0,8054,He is a good student,He is an excellent student,He is a perfect student,<em>Something else</em>,0,"<div><img src=""./visual stimuli-exp/grades/1wrong.png"" height = ""450""></div><p>How likely do you think it is that the girl will respond with each of the utterances below?</p>",,302707,31,html-multi-slider-response,,8
22,Condition 1,0.0-7.0-0.8,,0,100,0,0,9022,He is a good student,He is an excellent student,He is a perfect student,<em>Something else</em>,0,"<div><img src=""./visual stimuli-exp/grades/3wrong.png"" height = ""450""></div><p>How likely do you think it is that the girl will respond with each of the utterances below?</p>",,311730,32,html-multi-slider-response,,7
22,Condition 1,0.0-7.0-0.9,,90,0,0,10,71521,He is a good student,He is an excellent student,He is a perfect student,<em>Something else</em>,0,"<div><img src=""./visual stimuli-exp/grades/5wrong.png"" height = ""450""></div><p>How likely do you think it is that the girl will respond with each of the utterances below?</p>",,383264,33,html-multi-slider-response,,6
22,Condition 1,0.0-7.0-0.10,,0,0,0,100,3576,He is a good student,He is an excellent student,He is a perfect student,<em>Something else</em>,0,"<div><img src=""./visual stimuli-exp/grades/30wrong.png"" height = ""450""></div><p>How likely do you think it is that the girl will respond with each of the utterances below?</p>",,386842,34,html-multi-slider-response,,1
22,Condition 1,0.0-7.0-0.11,,90,10,0,0,7844,He is a good student,He is an excellent student,He is a perfect student,<em>Something else</em>,0,"<div><img src=""./visual stimuli-exp/grades/9wrong.png"" height = ""450""></div><p>How likely do you think it is that the girl will respond with each of the utterances below?</p>",,394686,35,html-multi-slider-response,,4
22,Condition 1,0.0-7.0-0.12,,50,0,0,50,7911,He is a good student,He is an excellent student,He is a perfect student,<em>Something else</em>,0,"<div><img src=""./visual stimuli-exp/grades/11wrong.png"" height = ""450""></div><p>How likely do you think it is that the girl will respond with each of the utterances below?</p>",,402599,36,html-multi-slider-response,,3
22,Condition 1,0.0-7.0-0.13,,0,0,100,0,8533,He is a good student,He is an excellent student,He is a perfect student,<em>Something else</em>,0,"<div><img src=""./visual stimuli-exp/grades/0wrong.png"" height = ""450""></div><p>How likely do you think it is that the girl will respond with each of the utterances below?</p>",,411133,37,html-multi-slider-response,,9
22,Condition 1,0.0-7.0-0.14,,60,0,0,40,7553,He is a good student,He is an excellent student,He is a perfect student,<em>Something else</em>,0,"<div><img src=""./visual stimuli-exp/grades/7wrong.png"" height = ""450""></div><p>How likely do you think it is that the girl will respond with each of the utterances below?</p>",,418688,38,html-multi-slider-response,,5
22,Condition 1,0.0-7.0-0.15,,5,90,5,0,10512,He is a good student,He is an excellent student,He is a perfect student,<em>Something else</em>,0,"<div><img src=""./visual stimuli-exp/grades/3wrong.png"" height = ""450""></div><p>How likely do you think it is that the girl will respond with each of the utterances below?</p>",,429202,39,html-multi-slider-response,,7
22,Condition 1,0.0-7.0-0.16,,90,0,0,10,7160,He is a good student,He is an excellent student,He is a perfect student,<em>Something else</em>,0,"<div><img src=""./visual stimuli-exp/grades/13wrong.png"" height = ""450""></div><p>How likely do you think it is that the girl will respond with each of the utterances below?</p>",,436364,40,html-multi-slider-response,,2
22,Condition 1,0.0-7.0-0.17,,0,90,10,0,9501,He is a good student,He is an excellent student,He is a perfect student,<em>Something else</em>,0,"<div><img src=""./visual stimuli-exp/grades/1wrong.png"" height = ""450""></div><p>How likely do you think it is that the girl will respond with each of the utterances below?</p>",,445866,41,html-multi-slider-response,,8
22,Condition 1,0.0-9.0-0.0,,0,0,100,0,4459,They are cleanish,They are clean,They are spotless,<em>Something else</em>,0,"<div><img src=""./visual stimuli-exp/clean/0clean-or-spotless.png"" height = ""450""></div><p>How likely do you think it is that the man will respond with each of the utterances below?</p>",,452857,43,html-multi-slider-response,,6
22,Condition 1,0.0-9.0-0.1,,0,0,100,0,4114,They are cleanish,They are clean,They are spotless,<em>Something else</em>,0,"<div><img src=""./visual stimuli-exp/clean/0spotless-light2.png"" height = ""450""></div><p>How likely do you think it is that the man will respond with each of the utterances below?</p>",,456981,44,html-multi-slider-response,,8
22,Condition 1,0.0-9.0-0.2,,100,0,0,0,5136,They are cleanish,They are clean,They are spotless,<em>Something else</em>,0,"<div><img src=""./visual stimuli-exp/clean/45dirty-withspots.png"" height = ""450""></div><p>How likely do you think it is that the man will respond with each of the utterances below?</p>",,462119,45,html-multi-slider-response,,3
22,Condition 1,0.0-9.0-0.3,,0,0,0,100,2746,They are cleanish,They are clean,They are spotless,<em>Something else</em>,0,"<div><img src=""./visual stimuli-exp/clean/100dirty.png"" height = ""450""></div><p>How likely do you think it is that the man will respond with each of the utterances below?</p>",,464865,46,html-multi-slider-response,,1
22,Condition 1,0.0-9.0-0.4,,0,25,75,0,9835,They are cleanish,They are clean,They are spotless,<em>Something else</em>,0,"<div><img src=""./visual stimuli-exp/clean/0spotless.png"" height = ""450""></div><p>How likely do you think it is that the man will respond with each of the utterances below?</p>",,474702,47,html-multi-slider-response,,7
22,Condition 1,0.0-9.0-0.5,,90,0,0,10,6988,They are cleanish,They are clean,They are spotless,<em>Something else</em>,0,"<div><img src=""./visual stimuli-exp/clean/30clean.png"" height = ""450""></div><p>How likely do you think it is that the man will respond with each of the utterances below?</p>",,481690,48,html-multi-slider-response,,4
22,Condition 1,0.0-9.0-0.6,,0,0,0,100,3631,They are cleanish,They are clean,They are spotless,<em>Something else</em>,0,"<div><img src=""./visual stimuli-exp/clean/60dirty-withspots.png"" height = ""450""></div><p>How likely do you think it is that the man will respond with each of the utterances below?</p>",,485323,49,html-multi-slider-response,,2
22,Condition 1,0.0-9.0-0.7,,0,0,100,0,4026,They are cleanish,They are clean,They are spotless,<em>Something else</em>,0,"<div><img src=""./visual stimuli-exp/clean/0spotless-light4.png"" height = ""450""></div><p>How likely do you think it is that the man will respond with each of the utterances below?</p>",,489351,50,html-multi-slider-response,,9
22,Condition 1,0.0-9.0-0.8,,10,90,0,0,8204,They are cleanish,They are clean,They are spotless,<em>Something else</em>,0,"<div><img src=""./visual stimuli-exp/clean/15clean.png"" height = ""450""></div><p>How likely do you think it is that the man will respond with each of the utterances below?</p>",,497556,51,html-multi-slider-response,,5
22,Condition 1,0.0-9.0-0.9,,90,0,0,10,6426,They are cleanish,They are clean,They are spotless,<em>Something else</em>,0,"<div><img src=""./visual stimuli-exp/clean/30clean.png"" height = ""450""></div><p>How likely do you think it is that the man will respond with each of the utterances below?</p>",,503983,52,html-multi-slider-response,,4
22,Condition 1,0.0-9.0-0.10,,0,10,90,0,7820,They are cleanish,They are clean,They are spotless,<em>Something else</em>,0,"<div><img src=""./visual stimuli-exp/clean/0spotless.png"" height = ""450""></div><p>How likely do you think it is that the man will respond with each of the utterances below?</p>",,511805,53,html-multi-slider-response,,7
22,Condition 1,0.0-9.0-0.11,,90,10,0,0,6923,They are cleanish,They are clean,They are spotless,<em>Something else</em>,0,"<div><img src=""./visual stimuli-exp/clean/15clean.png"" height = ""450""></div><p>How likely do you think it is that the man will respond with each of the utterances below?</p>",,518729,54,html-multi-slider-response,,5
22,Condition 1,0.0-9.0-0.12,,0,0,0,100,3350,They are cleanish,They are clean,They are spotless,<em>Something else</em>,0,"<div><img src=""./visual stimuli-exp/clean/60dirty-withspots.png"" height = ""450""></div><p>How likely do you think it is that the man will respond with each of the utterances below?</p>",,522080,55,html-multi-slider-response,,2
22,Condition 1,0.0-9.0-0.13,,0,0,100,0,5009,They are cleanish,They are clean,They are spotless,<em>Something else</em>,0,"<div><img src=""./visual stimuli-exp/clean/0spotless-light2.png"" height = ""450""></div><p>How likely do you think it is that the man will respond with each of the utterances below?</p>",,527090,56,html-multi-slider-response,,8
22,Condition 1,0.0-9.0-0.14,,0,0,0,100,3584,They are cleanish,They are clean,They are spotless,<em>Something else</em>,0,"<div><img src=""./visual stimuli-exp/clean/100dirty.png"" height = ""450""></div><p>How likely do you think it is that the man will respond with each of the utterances below?</p>",,530676,57,html-multi-slider-response,,1
22,Condition 1,0.0-9.0-0.15,,0,0,100,0,3269,They are cleanish,They are clean,They are spotless,<em>Something else</em>,0,"<div><img src=""./visual stimuli-exp/clean/0spotless-light4.png"" height = ""450""></div><p>How likely do you think it is that the man will respond with each of the utterances below?</p>",,533946,58,html-multi-slider-response,,9
22,Condition 1,0.0-9.0-0.16,,80,0,0,20,7228,They are cleanish,They are clean,They are spotless,<em>Something else</em>,0,"<div><img src=""./visual stimuli-exp/clean/45dirty-withspots.png"" height = ""450""></div><p>How likely do you think it is that the man will respond with each of the utterances below?</p>",,541176,59,html-multi-slider-response,,3
22,Condition 1,0.0-9.0-0.17,,5,95,0,0,8480,They are cleanish,They are clean,They are spotless,<em>Something else</em>,0,"<div><img src=""./visual stimuli-exp/clean/0clean-or-spotless.png"" height = ""450""></div><p>How likely do you think it is that the man will respond with each of the utterances below?</p>",,549658,60,html-multi-slider-response,,6
18,Condition 1,0.0-5.0-0.0,,20,40,40,0,28624,It is warm,It is hot,It is scalding,<em>Something else</em>,0,"<div><img src=""./visual stimuli-exp/temperature/70degree.png"" height = ""450""></div><p>How likely do you think it is that the waiter will respond with each of the utterances below?</p>",,51859,5,html-multi-slider-response,,7
18,Condition 1,0.0-5.0-0.1,,10,60,30,0,21564,It is warm,It is hot,It is scalding,<em>Something else</em>,0,"<div><img src=""./visual stimuli-exp/temperature/50degree.png"" height = ""450""></div><p>How likely do you think it is that the waiter will respond with each of the utterances below?</p>",,73419,6,html-multi-slider-response,,5
18,Condition 1,0.0-5.0-0.2,,10,10,70,10,10654,It is warm,It is hot,It is scalding,<em>Something else</em>,0,"<div><img src=""./visual stimuli-exp/temperature/90degree.png"" height = ""450""></div><p>How likely do you think it is that the waiter will respond with each of the utterances below?</p>",,84079,7,html-multi-slider-response,,9
18,Condition 1,0.0-5.0-0.3,,40,20,0,40,19341,It is warm,It is hot,It is scalding,<em>Something else</em>,0,"<div><img src=""./visual stimuli-exp/temperature/30degree.png"" height = ""450""></div><p>How likely do you think it is that the waiter will respond with each of the utterances below?</p>",,103427,8,html-multi-slider-response,,3
18,Condition 1,0.0-5.0-0.4,,20,50,20,10,20483,It is warm,It is hot,It is scalding,<em>Something else</em>,0,"<div><img src=""./visual stimuli-exp/temperature/60degree.png"" height = ""450""></div><p>How likely do you think it is that the waiter will respond with each of the utterances below?</p>",,123925,9,html-multi-slider-response,,6
18,Condition 1,0.0-5.0-0.5,,60,20,10,10,12597,It is warm,It is hot,It is scalding,<em>Something else</em>,0,"<div><img src=""./visual stimuli-exp/temperature/20degree.png"" height = ""450""></div><p>How likely do you think it is that the waiter will respond with each of the utterances below?</p>",,136527,10,html-multi-slider-response,,2
18,Condition 1,0.0-5.0-0.6,,10,10,70,10,10785,It is warm,It is hot,It is scalding,<em>Something else</em>,0,"<div><img src=""./visual stimuli-exp/temperature/80degree.png"" height = ""450""></div><p>How likely do you think it is that the waiter will respond with each of the utterances below?</p>",,147320,11,html-multi-slider-response,,8
18,Condition 1,0.0-5.0-0.7,,100,0,0,0,12500,It is warm,It is hot,It is scalding,<em>Something else</em>,0,"<div><img src=""./visual stimuli-exp/temperature/10degree.png"" height = ""450""></div><p>How likely do you think it is that the waiter will respond with each of the utterances below?</p>",,159826,12,html-multi-slider-response,,1
18,Condition 1,0.0-5.0-0.8,,90,10,0,0,16905,It is warm,It is hot,It is scalding,<em>Something else</em>,0,"<div><img src=""./visual stimuli-exp/temperature/40degree.png"" height = ""450""></div><p>How likely do you think it is that the waiter will respond with each of the utterances below?</p>",,176735,13,html-multi-slider-response,,4
18,Condition 1,0.0-5.0-0.9,,70,30,0,0,28523,It is warm,It is hot,It is scalding,<em>Something else</em>,0,"<div><img src=""./visual stimuli-exp/temperature/20degree.png"" height = ""450""></div><p>How likely do you think it is that the waiter will respond with each of the utterances below?</p>",,205268,14,html-multi-slider-response,,2
18,Condition 1,0.0-5.0-0.10,,100,0,0,0,4282,It is warm,It is hot,It is scalding,<em>Something else</em>,0,"<div><img src=""./visual stimuli-exp/temperature/10degree.png"" height = ""450""></div><p>How likely do you think it is that the waiter will respond with each of the utterances below?</p>",,209554,15,html-multi-slider-response,,1
18,Condition 1,0.0-5.0-0.11,,0,40,60,0,8333,It is warm,It is hot,It is scalding,<em>Something else</em>,0,"<div><img src=""./visual stimuli-exp/temperature/60degree.png"" height = ""450""></div><p>How likely do you think it is that the waiter will respond with each of the utterances below?</p>",,217889,16,html-multi-slider-response,,6
18,Condition 1,0.0-5.0-0.12,,20,50,10,20,17348,It is warm,It is hot,It is scalding,<em>Something else</em>,0,"<div><img src=""./visual stimuli-exp/temperature/40degree.png"" height = ""450""></div><p>How likely do you think it is that the waiter will respond with each of the utterances below?</p>",,235243,17,html-multi-slider-response,,4
18,Condition 1,0.0-5.0-0.13,,0,40,50,10,14869,It is warm,It is hot,It is scalding,<em>Something else</em>,0,"<div><img src=""./visual stimuli-exp/temperature/80degree.png"" height = ""450""></div><p>How likely do you think it is that the waiter will respond with each of the utterances below?</p>",,250112,18,html-multi-slider-response,,8
18,Condition 1,0.0-5.0-0.14,,40,50,0,10,11348,It is warm,It is hot,It is scalding,<em>Something else</em>,0,"<div><img src=""./visual stimuli-exp/temperature/30degree.png"" height = ""450""></div><p>How likely do you think it is that the waiter will respond with each of the utterances below?</p>",,261466,19,html-multi-slider-response,,3
18,Condition 1,0.0-5.0-0.15,,0,0,80,20,9837,It is warm,It is hot,It is scalding,<em>Something else</em>,0,"<div><img src=""./visual stimuli-exp/temperature/90degree.png"" height = ""450""></div><p>How likely do you think it is that the waiter will respond with each of the utterances below?</p>",,271309,20,html-multi-slider-response,,9
18,Condition 1,0.0-5.0-0.16,,0,60,0,40,6762,It is warm,It is hot,It is scalding,<em>Something else</em>,0,"<div><img src=""./visual stimuli-exp/temperature/50degree.png"" height = ""450""></div><p>How likely do you think it is that the waiter will respond with each of the utterances below?</p>",,278076,21,html-multi-slider-response,,5
18,Condition 1,0.0-5.0-0.17,,0,70,30,0,13398,It is warm,It is hot,It is scalding,<em>Something else</em>,0,"<div><img src=""./visual stimuli-exp/temperature/70degree.png"" height = ""450""></div><p>How likely do you think it is that the waiter will respond with each of the utterances below?</p>",,291480,22,html-multi-slider-response,,7
18,Condition 1,0.0-7.0-0.0,,60,30,0,10,19404,He is a good student,He is an excellent student,He is a perfect student,<em>Something else</em>,0,"<div><img src=""./visual stimuli-exp/grades/5wrong.png"" height = ""450""></div><p>How likely do you think it is that the girl will respond with each of the utterances below?</p>",,320200,24,html-multi-slider-response,,6
18,Condition 1,0.0-7.0-0.1,,80,0,0,20,10479,He is a good student,He is an excellent student,He is a perfect student,<em>Something else</em>,0,"<div><img src=""./visual stimuli-exp/grades/9wrong.png"" height = ""450""></div><p>How likely do you think it is that the girl will respond with each of the utterances below?</p>",,330685,25,html-multi-slider-response,,4
18,Condition 1,0.0-7.0-0.2,,40,50,0,10,12753,He is a good student,He is an excellent student,He is a perfect student,<em>Something else</em>,0,"<div><img src=""./visual stimuli-exp/grades/3wrong.png"" height = ""450""></div><p>How likely do you think it is that the girl will respond with each of the utterances below?</p>",,343441,26,html-multi-slider-response,,7
18,Condition 1,0.0-7.0-0.3,,60,30,0,10,10343,He is a good student,He is an excellent student,He is a perfect student,<em>Something else</em>,0,"<div><img src=""./visual stimuli-exp/grades/7wrong.png"" height = ""450""></div><p>How likely do you think it is that the girl will respond with each of the utterances below?</p>",,353790,27,html-multi-slider-response,,5
18,Condition 1,0.0-7.0-0.4,,30,70,0,0,14234,He is a good student,He is an excellent student,He is a perfect student,<em>Something else</em>,0,"<div><img src=""./visual stimuli-exp/grades/11wrong.png"" height = ""450""></div><p>How likely do you think it is that the girl will respond with each of the utterances below?</p>",,368032,28,html-multi-slider-response,,3
18,Condition 1,0.0-7.0-0.5,,80,0,0,20,8672,He is a good student,He is an excellent student,He is a perfect student,<em>Something else</em>,0,"<div><img src=""./visual stimuli-exp/grades/13wrong.png"" height = ""450""></div><p>How likely do you think it is that the girl will respond with each of the utterances below?</p>",,376710,29,html-multi-slider-response,,2
18,Condition 1,0.0-7.0-0.6,,0,0,100,0,5171,He is a good student,He is an excellent student,He is a perfect student,<em>Something else</em>,0,"<div><img src=""./visual stimuli-exp/grades/0wrong.png"" height = ""450""></div><p>How likely do you think it is that the girl will respond with each of the utterances below?</p>",,381887,30,html-multi-slider-response,,9
18,Condition 1,0.0-7.0-0.7,,0,0,0,100,7257,He is a good student,He is an excellent student,He is a perfect student,<em>Something else</em>,0,"<div><img src=""./visual stimuli-exp/grades/30wrong.png"" height = ""450""></div><p>How likely do you think it is that the girl will respond with each of the utterances below?</p>",,389150,31,html-multi-slider-response,,1
18,Condition 1,0.0-7.0-0.8,,0,90,10,0,8877,He is a good student,He is an excellent student,He is a perfect student,<em>Something else</em>,0,"<div><img src=""./visual stimuli-exp/grades/1wrong.png"" height = ""450""></div><p>How likely do you think it is that the girl will respond with each of the utterances below?</p>",,398034,32,html-multi-slider-response,,8
18,Condition 1,0.0-7.0-0.9,,40,60,0,0,13605,He is a good student,He is an excellent student,He is a perfect student,<em>Something else</em>,0,"<div><img src=""./visual stimuli-exp/grades/9wrong.png"" height = ""450""></div><p>How likely do you think it is that the girl will respond with each of the utterances below?</p>",,411646,33,html-multi-slider-response,,4
18,Condition 1,0.0-7.0-0.10,,80,50,0,20,15907,He is a good student,He is an excellent student,He is a perfect student,<em>Something else</em>,0,"<div><img src=""./visual stimuli-exp/grades/13wrong.png"" height = ""450""></div><p>How likely do you think it is that the girl will respond with each of the utterances below?</p>",,427555,34,html-multi-slider-response,,2
18,Condition 1,0.0-7.0-0.11,,70,0,0,30,13596,He is a good student,He is an excellent student,He is a perfect student,<em>Something else</em>,0,"<div><img src=""./visual stimuli-exp/grades/7wrong.png"" height = ""450""></div><p>How likely do you think it is that the girl will respond with each of the utterances below?</p>",,441157,35,html-multi-slider-response,,5
18,Condition 1,0.0-7.0-0.12,,0,0,100,0,4243,He is a good student,He is an excellent student,He is a perfect student,<em>Something else</em>,0,"<div><img src=""./visual stimuli-exp/grades/0wrong.png"" height = ""450""></div><p>How likely do you think it is that the girl will respond with each of the utterances below?</p>",,445405,36,html-multi-slider-response,,9
18,Condition 1,0.0-7.0-0.13,,0,100,0,0,6423,He is a good student,He is an excellent student,He is a perfect student,<em>Something else</em>,0,"<div><img src=""./visual stimuli-exp/grades/5wrong.png"" height = ""450""></div><p>How likely do you think it is that the girl will respond with each of the utterances below?</p>",,451832,37,html-multi-slider-response,,6
18,Condition 1,0.0-7.0-0.14,,0,0,0,100,4207,He is a good student,He is an excellent student,He is a perfect student,<em>Something else</em>,0,"<div><img src=""./visual stimuli-exp/grades/30wrong.png"" height = ""450""></div><p>How likely do you think it is that the girl will respond with each of the utterances below?</p>",,456045,38,html-multi-slider-response,,1
18,Condition 1,0.0-7.0-0.15,,0,90,0,10,14291,He is a good student,He is an excellent student,He is a perfect student,<em>Something else</em>,0,"<div><img src=""./visual stimuli-exp/grades/3wrong.png"" height = ""450""></div><p>How likely do you think it is that the girl will respond with each of the utterances below?</p>",,470341,39,html-multi-slider-response,,7
18,Condition 1,0.0-7.0-0.16,,50,50,0,0,12221,He is a good student,He is an excellent student,He is a perfect student,<em>Something else</em>,0,"<div><img src=""./visual stimuli-exp/grades/11wrong.png"" height = ""450""></div><p>How likely do you think it is that the girl will respond with each of the utterances below?</p>",,482565,40,html-multi-slider-response,,3
18,Condition 1,0.0-7.0-0.17,,0,90,10,0,6078,He is a good student,He is an excellent student,He is a perfect student,<em>Something else</em>,0,"<div><img src=""./visual stimuli-exp/grades/1wrong.png"" height = ""450""></div><p>How likely do you think it is that the girl will respond with each of the utterances below?</p>",,488650,41,html-multi-slider-response,,8
18,Condition 1,0.0-9.0-0.0,,20,0,0,80,17089,They are cleanish,They are clean,They are spotless,<em>Something else</em>,0,"<div><img src=""./visual stimuli-exp/clean/100dirty.png"" height = ""450""></div><p>How likely do you think it is that the man will respond with each of the utterances below?</p>",,511352,43,html-multi-slider-response,,1
18,Condition 1,0.0-9.0-0.1,,0,0,100,0,4771,They are cleanish,They are clean,They are spotless,<em>Something else</em>,0,"<div><img src=""./visual stimuli-exp/clean/0spotless-light4.png"" height = ""450""></div><p>How likely do you think it is that the man will respond with each of the utterances below?</p>",,516129,44,html-multi-slider-response,,9
18,Condition 1,0.0-9.0-0.2,,0,100,0,0,14370,They are cleanish,They are clean,They are spotless,<em>Something else</em>,0,"<div><img src=""./visual stimuli-exp/clean/15clean.png"" height = ""450""></div><p>How likely do you think it is that the man will respond with each of the utterances below?</p>",,530504,45,html-multi-slider-response,,5
18,Condition 1,0.0-9.0-0.3,,0,0,100,0,5448,They are cleanish,They are clean,They are spotless,<em>Something else</em>,0,"<div><img src=""./visual stimuli-exp/clean/0spotless-light2.png"" height = ""450""></div><p>How likely do you think it is that the man will respond with each of the utterances below?</p>",,535958,46,html-multi-slider-response,,8
18,Condition 1,0.0-9.0-0.4,,100,0,0,0,7440,They are cleanish,They are clean,They are spotless,<em>Something else</em>,0,"<div><img src=""./visual stimuli-exp/clean/45dirty-withspots.png"" height = ""450""></div><p>How likely do you think it is that the man will respond with each of the utterances below?</p>",,543411,47,html-multi-slider-response,,3
18,Condition 1,0.0-9.0-0.5,,100,0,0,0,5186,They are cleanish,They are clean,They are spotless,<em>Something else</em>,0,"<div><img src=""./visual stimuli-exp/clean/30clean.png"" height = ""450""></div><p>How likely do you think it is that the man will respond with each of the utterances below?</p>",,548603,48,html-multi-slider-response,,4
18,Condition 1,0.0-9.0-0.6,,0,100,0,0,5273,They are cleanish,They are clean,They are spotless,<em>Something else</em>,0,"<div><img src=""./visual stimuli-exp/clean/0clean-or-spotless.png"" height = ""450""></div><p>How likely do you think it is that the man will respond with each of the utterances below?</p>",,553885,49,html-multi-slider-response,,6
18,Condition 1,0.0-9.0-0.7,,100,0,0,0,5717,They are cleanish,They are clean,They are spotless,<em>Something else</em>,0,"<div><img src=""./visual stimuli-exp/clean/60dirty-withspots.png"" height = ""450""></div><p>How likely do you think it is that the man will respond with each of the utterances below?</p>",,559608,50,html-multi-slider-response,,2
18,Condition 1,0.0-9.0-0.8,,0,100,0,0,10639,They are cleanish,They are clean,They are spotless,<em>Something else</em>,0,"<div><img src=""./visual stimuli-exp/clean/0spotless.png"" height = ""450""></div><p>How likely do you think it is that the man will respond with each of the utterances below?</p>",,570256,51,html-multi-slider-response,,7
18,Condition 1,0.0-9.0-0.9,,0,100,0,0,4420,They are cleanish,They are clean,They are spotless,<em>Something else</em>,0,"<div><img src=""./visual stimuli-exp/clean/0clean-or-spotless.png"" height = ""450""></div><p>How likely do you think it is that the man will respond with each of the utterances below?</p>",,574684,52,html-multi-slider-response,,6
18,Condition 1,0.0-9.0-0.10,,100,0,0,0,4607,They are cleanish,They are clean,They are spotless,<em>Something else</em>,0,"<div><img src=""./visual stimuli-exp/clean/30clean.png"" height = ""450""></div><p>How likely do you think it is that the man will respond with each of the utterances below?</p>",,579298,53,html-multi-slider-response,,4
18,Condition 1,0.0-9.0-0.11,,0,100,0,0,5909,They are cleanish,They are clean,They are spotless,<em>Something else</em>,0,"<div><img src=""./visual stimuli-exp/clean/0spotless.png"" height = ""450""></div><p>How likely do you think it is that the man will respond with each of the utterances below?</p>",,585213,54,html-multi-slider-response,,7
18,Condition 1,0.0-9.0-0.12,,0,0,100,0,4143,They are cleanish,They are clean,They are spotless,<em>Something else</em>,0,"<div><img src=""./visual stimuli-exp/clean/0spotless-light4.png"" height = ""450""></div><p>How likely do you think it is that the man will respond with each of the utterances below?</p>",,589362,55,html-multi-slider-response,,9
18,Condition 1,0.0-9.0-0.13,,100,0,0,0,5370,They are cleanish,They are clean,They are spotless,<em>Something else</em>,0,"<div><img src=""./visual stimuli-exp/clean/60dirty-withspots.png"" height = ""450""></div><p>How likely do you think it is that the man will respond with each of the utterances below?</p>",,594738,56,html-multi-slider-response,,2
18,Condition 1,0.0-9.0-0.14,,0,0,100,0,4787,They are cleanish,They are clean,They are spotless,<em>Something else</em>,0,"<div><img src=""./visual stimuli-exp/clean/0spotless-light2.png"" height = ""450""></div><p>How likely do you think it is that the man will respond with each of the utterances below?</p>",,599531,57,html-multi-slider-response,,8
18,Condition 1,0.0-9.0-0.15,,0,100,0,0,4645,They are cleanish,They are clean,They are spotless,<em>Something else</em>,0,"<div><img src=""./visual stimuli-exp/clean/15clean.png"" height = ""450""></div><p>How likely do you think it is that the man will respond with each of the utterances below?</p>",,604177,58,html-multi-slider-response,,5
18,Condition 1,0.0-9.0-0.16,,100,0,0,0,5374,They are cleanish,They are clean,They are spotless,<em>Something else</em>,0,"<div><img src=""./visual stimuli-exp/clean/45dirty-withspots.png"" height = ""450""></div><p>How likely do you think it is that the man will respond with each of the utterances below?</p>",,609557,59,html-multi-slider-response,,3
18,Condition 1,0.0-9.0-0.17,,0,0,0,100,4469,They are cleanish,They are clean,They are spotless,<em>Something else</em>,0,"<div><img src=""./visual stimuli-exp/clean/100dirty.png"" height = ""450""></div><p>How likely do you think it is that the man will respond with each of the utterances below?</p>",,614033,60,html-multi-slider-response,,1
17,Condition 1,0.0-5.0-0.0,,0,0,0,100,27058,It is warm,It is hot,It is scalding,<em>Something else</em>,0,"<div><img src=""./visual stimuli-exp/temperature/10degree.png"" height = ""450""></div><p>How likely do you think it is that the waiter will respond with each of the utterances below?</p>",,80838,5,html-multi-slider-response,,1
17,Condition 1,0.0-5.0-0.1,,0,90,10,0,25275,It is warm,It is hot,It is scalding,<em>Something else</em>,0,"<div><img src=""./visual stimuli-exp/temperature/90degree.png"" height = ""450""></div><p>How likely do you think it is that the waiter will respond with each of the utterances below?</p>",,106119,6,html-multi-slider-response,,9
17,Condition 1,0.0-5.0-0.2,,10,0,0,90,15857,It is warm,It is hot,It is scalding,<em>Something else</em>,0,"<div><img src=""./visual stimuli-exp/temperature/20degree.png"" height = ""450""></div><p>How likely do you think it is that the waiter will respond with each of the utterances below?</p>",,121978,7,html-multi-slider-response,,2
17,Condition 1,0.0-5.0-0.3,,0,100,0,0,10251,It is warm,It is hot,It is scalding,<em>Something else</em>,0,"<div><img src=""./visual stimuli-exp/temperature/80degree.png"" height = ""450""></div><p>How likely do you think it is that the waiter will respond with each of the utterances below?</p>",,132232,8,html-multi-slider-response,,8
17,Condition 1,0.0-5.0-0.4,,50,50,0,0,13197,It is warm,It is hot,It is scalding,<em>Something else</em>,0,"<div><img src=""./visual stimuli-exp/temperature/40degree.png"" height = ""450""></div><p>How likely do you think it is that the waiter will respond with each of the utterances below?</p>",,145433,9,html-multi-slider-response,,4
17,Condition 1,0.0-5.0-0.5,,50,50,0,0,14241,It is warm,It is hot,It is scalding,<em>Something else</em>,0,"<div><img src=""./visual stimuli-exp/temperature/50degree.png"" height = ""450""></div><p>How likely do you think it is that the waiter will respond with each of the utterances below?</p>",,159677,10,html-multi-slider-response,,5
17,Condition 1,0.0-5.0-0.6,,15,85,0,0,28589,It is warm,It is hot,It is scalding,<em>Something else</em>,0,"<div><img src=""./visual stimuli-exp/temperature/70degree.png"" height = ""450""></div><p>How likely do you think it is that the waiter will respond with each of the utterances below?</p>",,188269,11,html-multi-slider-response,,7
17,Condition 1,0.0-5.0-0.7,,100,0,0,0,4618,It is warm,It is hot,It is scalding,<em>Something else</em>,0,"<div><img src=""./visual stimuli-exp/temperature/30degree.png"" height = ""450""></div><p>How likely do you think it is that the waiter will respond with each of the utterances below?</p>",,192889,12,html-multi-slider-response,,3
17,Condition 1,0.0-5.0-0.8,,0,100,0,0,4728,It is warm,It is hot,It is scalding,<em>Something else</em>,0,"<div><img src=""./visual stimuli-exp/temperature/60degree.png"" height = ""450""></div><p>How likely do you think it is that the waiter will respond with each of the utterances below?</p>",,197618,13,html-multi-slider-response,,6
17,Condition 1,0.0-5.0-0.9,,0,0,0,100,6731,It is warm,It is hot,It is scalding,<em>Something else</em>,0,"<div><img src=""./visual stimuli-exp/temperature/10degree.png"" height = ""450""></div><p>How likely do you think it is that the waiter will respond with each of the utterances below?</p>",,204351,14,html-multi-slider-response,,1
17,Condition 1,0.0-5.0-0.10,,0,100,0,0,7043,It is warm,It is hot,It is scalding,<em>Something else</em>,0,"<div><img src=""./visual stimuli-exp/temperature/70degree.png"" height = ""450""></div><p>How likely do you think it is that the waiter will respond with each of the utterances below?</p>",,211395,15,html-multi-slider-response,,7
17,Condition 1,0.0-5.0-0.11,,0,80,20,0,11332,It is warm,It is hot,It is scalding,<em>Something else</em>,0,"<div><img src=""./visual stimuli-exp/temperature/80degree.png"" height = ""450""></div><p>How likely do you think it is that the waiter will respond with each of the utterances below?</p>",,222728,16,html-multi-slider-response,,8
17,Condition 1,0.0-5.0-0.12,,0,100,0,0,12498,It is warm,It is hot,It is scalding,<em>Something else</em>,0,"<div><img src=""./visual stimuli-exp/temperature/40degree.png"" height = ""450""></div><p>How likely do you think it is that the waiter will respond with each of the utterances below?</p>",,235228,17,html-multi-slider-response,,4
17,Condition 1,0.0-5.0-0.13,,0,20,80,0,17305,It is warm,It is hot,It is scalding,<em>Something else</em>,0,"<div><img src=""./visual stimuli-exp/temperature/90degree.png"" height = ""450""></div><p>How likely do you think it is that the waiter will respond with each of the utterances below?</p>",,252535,18,html-multi-slider-response,,9
17,Condition 1,0.0-5.0-0.14,,60,0,0,40,47443,It is warm,It is hot,It is scalding,<em>Something else</em>,0,"<div><img src=""./visual stimuli-exp/temperature/20degree.png"" height = ""450""></div><p>How likely do you think it is that the waiter will respond with each of the utterances below?</p>",,299981,19,html-multi-slider-response,,2
17,Condition 1,0.0-5.0-0.15,,0,80,20,0,13836,It is warm,It is hot,It is scalding,<em>Something else</em>,0,"<div><img src=""./visual stimuli-exp/temperature/60degree.png"" height = ""450""></div><p>How likely do you think it is that the waiter will respond with each of the utterances below?</p>",,313817,20,html-multi-slider-response,,6
17,Condition 1,0.0-5.0-0.16,,50,50,0,0,30859,It is warm,It is hot,It is scalding,<em>Something else</em>,0,"<div><img src=""./visual stimuli-exp/temperature/30degree.png"" height = ""450""></div><p>How likely do you think it is that the waiter will respond with each of the utterances below?</p>",,344678,21,html-multi-slider-response,,3
17,Condition 1,0.0-5.0-0.17,,0,100,0,0,8307,It is warm,It is hot,It is scalding,<em>Something else</em>,0,"<div><img src=""./visual stimuli-exp/temperature/50degree.png"" height = ""450""></div><p>How likely do you think it is that the waiter will respond with each of the utterances below?</p>",,352987,22,html-multi-slider-response,,5
17,Condition 1,0.0-7.0-0.0,,100,0,0,0,248397,He is a good student,He is an excellent student,He is a perfect student,<em>Something else</em>,0,"<div><img src=""./visual stimuli-exp/grades/7wrong.png"" height = ""450""></div><p>How likely do you think it is that the girl will respond with each of the utterances below?</p>",,620725,24,html-multi-slider-response,,5
17,Condition 1,0.0-7.0-0.1,,30,0,0,70,18938,He is a good student,He is an excellent student,He is a perfect student,<em>Something else</em>,0,"<div><img src=""./visual stimuli-exp/grades/13wrong.png"" height = ""450""></div><p>How likely do you think it is that the girl will respond with each of the utterances below?</p>",,639666,25,html-multi-slider-response,,2
17,Condition 1,0.0-7.0-0.2,,20,0,0,80,38181,He is a good student,He is an excellent student,He is a perfect student,<em>Something else</em>,0,"<div><img src=""./visual stimuli-exp/grades/11wrong.png"" height = ""450""></div><p>How likely do you think it is that the girl will respond with each of the utterances below?</p>",,677851,26,html-multi-slider-response,,3
17,Condition 1,0.0-7.0-0.3,,0,0,0,100,4757,He is a good student,He is an excellent student,He is a perfect student,<em>Something else</em>,0,"<div><img src=""./visual stimuli-exp/grades/30wrong.png"" height = ""450""></div><p>How likely do you think it is that the girl will respond with each of the utterances below?</p>",,682612,27,html-multi-slider-response,,1
17,Condition 1,0.0-7.0-0.4,,0,100,0,0,28076,He is a good student,He is an excellent student,He is a perfect student,<em>Something else</em>,0,"<div><img src=""./visual stimuli-exp/grades/3wrong.png"" height = ""450""></div><p>How likely do you think it is that the girl will respond with each of the utterances below?</p>",,710691,28,html-multi-slider-response,,7
17,Condition 1,0.0-7.0-0.5,,60,0,0,40,12323,He is a good student,He is an excellent student,He is a perfect student,<em>Something else</em>,0,"<div><img src=""./visual stimuli-exp/grades/9wrong.png"" height = ""450""></div><p>How likely do you think it is that the girl will respond with each of the utterances below?</p>",,723017,29,html-multi-slider-response,,4
17,Condition 1,0.0-7.0-0.6,,0,0,100,0,3780,He is a good student,He is an excellent student,He is a perfect student,<em>Something else</em>,0,"<div><img src=""./visual stimuli-exp/grades/0wrong.png"" height = ""450""></div><p>How likely do you think it is that the girl will respond with each of the utterances below?</p>",,726801,30,html-multi-slider-response,,9
17,Condition 1,0.0-7.0-0.7,,0,100,0,0,4617,He is a good student,He is an excellent student,He is a perfect student,<em>Something else</em>,0,"<div><img src=""./visual stimuli-exp/grades/5wrong.png"" height = ""450""></div><p>How likely do you think it is that the girl will respond with each of the utterances below?</p>",,731422,31,html-multi-slider-response,,6
17,Condition 1,0.0-7.0-0.8,,0,10,90,0,12282,He is a good student,He is an excellent student,He is a perfect student,<em>Something else</em>,0,"<div><img src=""./visual stimuli-exp/grades/1wrong.png"" height = ""450""></div><p>How likely do you think it is that the girl will respond with each of the utterances below?</p>",,743707,32,html-multi-slider-response,,8
17,Condition 1,0.0-7.0-0.9,,50,0,0,50,77605,He is a good student,He is an excellent student,He is a perfect student,<em>Something else</em>,0,"<div><img src=""./visual stimuli-exp/grades/13wrong.png"" height = ""450""></div><p>How likely do you think it is that the girl will respond with each of the utterances below?</p>",,821315,33,html-multi-slider-response,,2
17,Condition 1,0.0-7.0-0.10,,100,0,0,0,4509,He is a good student,He is an excellent student,He is a perfect student,<em>Something else</em>,0,"<div><img src=""./visual stimuli-exp/grades/9wrong.png"" height = ""450""></div><p>How likely do you think it is that the girl will respond with each of the utterances below?</p>",,825827,34,html-multi-slider-response,,4
17,Condition 1,0.0-7.0-0.11,,18,82,0,0,9042,He is a good student,He is an excellent student,He is a perfect student,<em>Something else</em>,0,"<div><img src=""./visual stimuli-exp/grades/3wrong.png"" height = ""450""></div><p>How likely do you think it is that the girl will respond with each of the utterances below?</p>",,834873,35,html-multi-slider-response,,7
17,Condition 1,0.0-7.0-0.12,,0,0,0,100,4042,He is a good student,He is an excellent student,He is a perfect student,<em>Something else</em>,0,"<div><img src=""./visual stimuli-exp/grades/30wrong.png"" height = ""450""></div><p>How likely do you think it is that the girl will respond with each of the utterances below?</p>",,838919,36,html-multi-slider-response,,1
17,Condition 1,0.0-7.0-0.13,,100,0,0,0,3892,He is a good student,He is an excellent student,He is a perfect student,<em>Something else</em>,0,"<div><img src=""./visual stimuli-exp/grades/7wrong.png"" height = ""450""></div><p>How likely do you think it is that the girl will respond with each of the utterances below?</p>",,842814,37,html-multi-slider-response,,5
17,Condition 1,0.0-7.0-0.14,,30,70,0,0,357433,He is a good student,He is an excellent student,He is a perfect student,<em>Something else</em>,0,"<div><img src=""./visual stimuli-exp/grades/5wrong.png"" height = ""450""></div><p>How likely do you think it is that the girl will respond with each of the utterances below?</p>",,1200259,38,html-multi-slider-response,,6
17,Condition 1,0.0-7.0-0.15,,10,0,90,0,37688,He is a good student,He is an excellent student,He is a perfect student,<em>Something else</em>,0,"<div><img src=""./visual stimuli-exp/grades/1wrong.png"" height = ""450""></div><p>How likely do you think it is that the girl will respond with each of the utterances below?</p>",,1237952,39,html-multi-slider-response,,8
17,Condition 1,0.0-7.0-0.16,,0,0,100,0,6000,He is a good student,He is an excellent student,He is a perfect student,<em>Something else</em>,0,"<div><img src=""./visual stimuli-exp/grades/0wrong.png"" height = ""450""></div><p>How likely do you think it is that the girl will respond with each of the utterances below?</p>",,1243954,40,html-multi-slider-response,,9
17,Condition 1,0.0-7.0-0.17,,50,0,0,50,10192,He is a good student,He is an excellent student,He is a perfect student,<em>Something else</em>,0,"<div><img src=""./visual stimuli-exp/grades/11wrong.png"" height = ""450""></div><p>How likely do you think it is that the girl will respond with each of the utterances below?</p>",,1254149,41,html-multi-slider-response,,3
17,Condition 1,0.0-9.0-0.0,,0,11,89,0,17306,They are cleanish,They are clean,They are spotless,<em>Something else</em>,0,"<div><img src=""./visual stimuli-exp/clean/15clean.png"" height = ""450""></div><p>How likely do you think it is that the man will respond with each of the utterances below?</p>",,1442311,43,html-multi-slider-response,,5
17,Condition 1,0.0-9.0-0.1,,0,0,0,100,4941,They are cleanish,They are clean,They are spotless,<em>Something else</em>,0,"<div><img src=""./visual stimuli-exp/clean/100dirty.png"" height = ""450""></div><p>How likely do you think it is that the man will respond with each of the utterances below?</p>",,1447255,44,html-multi-slider-response,,1
17,Condition 1,0.0-9.0-0.2,,0,0,100,0,4368,They are cleanish,They are clean,They are spotless,<em>Something else</em>,0,"<div><img src=""./visual stimuli-exp/clean/0clean-or-spotless.png"" height = ""450""></div><p>How likely do you think it is that the man will respond with each of the utterances below?</p>",,1451628,45,html-multi-slider-response,,6
17,Condition 1,0.0-9.0-0.3,,34,0,0,66,12009,They are cleanish,They are clean,They are spotless,<em>Something else</em>,0,"<div><img src=""./visual stimuli-exp/clean/45dirty-withspots.png"" height = ""450""></div><p>How likely do you think it is that the man will respond with each of the utterances below?</p>",,1463641,46,html-multi-slider-response,,3
17,Condition 1,0.0-9.0-0.4,,0,0,100,0,6328,They are cleanish,They are clean,They are spotless,<em>Something else</em>,0,"<div><img src=""./visual stimuli-exp/clean/0spotless-light4.png"" height = ""450""></div><p>How likely do you think it is that the man will respond with each of the utterances below?</p>",,1469972,47,html-multi-slider-response,,9
17,Condition 1,0.0-9.0-0.5,,0,0,83,17,11462,They are cleanish,They are clean,They are spotless,<em>Something else</em>,0,"<div><img src=""./visual stimuli-exp/clean/0spotless.png"" height = ""450""></div><p>How likely do you think it is that the man will respond with each of the utterances below?</p>",,1481438,48,html-multi-slider-response,,7
17,Condition 1,0.0-9.0-0.6,,0,0,0,100,4034,They are cleanish,They are clean,They are spotless,<em>Something else</em>,0,"<div><img src=""./visual stimuli-exp/clean/60dirty-withspots.png"" height = ""450""></div><p>How likely do you think it is that the man will respond with each of the utterances below?</p>",,1485475,49,html-multi-slider-response,,2
17,Condition 1,0.0-9.0-0.7,,0,0,100,0,4072,They are cleanish,They are clean,They are spotless,<em>Something else</em>,0,"<div><img src=""./visual stimuli-exp/clean/0spotless-light2.png"" height = ""450""></div><p>How likely do you think it is that the man will respond with each of the utterances below?</p>",,1489550,50,html-multi-slider-response,,8
17,Condition 1,0.0-9.0-0.8,,100,0,0,0,7723,They are cleanish,They are clean,They are spotless,<em>Something else</em>,0,"<div><img src=""./visual stimuli-exp/clean/30clean.png"" height = ""450""></div><p>How likely do you think it is that the man will respond with each of the utterances below?</p>",,1497276,51,html-multi-slider-response,,4
17,Condition 1,0.0-9.0-0.9,,0,0,0,100,3342,They are cleanish,They are clean,They are spotless,<em>Something else</em>,0,"<div><img src=""./visual stimuli-exp/clean/60dirty-withspots.png"" height = ""450""></div><p>How likely do you think it is that the man will respond with each of the utterances below?</p>",,1500623,52,html-multi-slider-response,,2
17,Condition 1,0.0-9.0-0.10,,0,0,100,0,3218,They are cleanish,They are clean,They are spotless,<em>Something else</em>,0,"<div><img src=""./visual stimuli-exp/clean/0spotless-light4.png"" height = ""450""></div><p>How likely do you think it is that the man will respond with each of the utterances below?</p>",,1503844,53,html-multi-slider-response,,9
17,Condition 1,0.0-9.0-0.11,,9,0,0,91,7432,They are cleanish,They are clean,They are spotless,<em>Something else</em>,0,"<div><img src=""./visual stimuli-exp/clean/45dirty-withspots.png"" height = ""450""></div><p>How likely do you think it is that the man will respond with each of the utterances below?</p>",,1511280,54,html-multi-slider-response,,3
17,Condition 1,0.0-9.0-0.12,,94,6,0,0,9050,They are cleanish,They are clean,They are spotless,<em>Something else</em>,0,"<div><img src=""./visual stimuli-exp/clean/15clean.png"" height = ""450""></div><p>How likely do you think it is that the man will respond with each of the utterances below?</p>",,1520333,55,html-multi-slider-response,,5
17,Condition 1,0.0-9.0-0.13,,83,17,0,0,4468,They are cleanish,They are clean,They are spotless,<em>Something else</em>,0,"<div><img src=""./visual stimuli-exp/clean/30clean.png"" height = ""450""></div><p>How likely do you think it is that the man will respond with each of the utterances below?</p>",,1524804,56,html-multi-slider-response,,4
17,Condition 1,0.0-9.0-0.14,,0,0,0,100,3889,They are cleanish,They are clean,They are spotless,<em>Something else</em>,0,"<div><img src=""./visual stimuli-exp/clean/100dirty.png"" height = ""450""></div><p>How likely do you think it is that the man will respond with each of the utterances below?</p>",,1528695,57,html-multi-slider-response,,1
17,Condition 1,0.0-9.0-0.15,,0,0,100,0,6424,They are cleanish,They are clean,They are spotless,<em>Something else</em>,0,"<div><img src=""./visual stimuli-exp/clean/0spotless-light2.png"" height = ""450""></div><p>How likely do you think it is that the man will respond with each of the utterances below?</p>",,1535121,58,html-multi-slider-response,,8
17,Condition 1,0.0-9.0-0.16,,0,100,0,0,4350,They are cleanish,They are clean,They are spotless,<em>Something else</em>,0,"<div><img src=""./visual stimuli-exp/clean/0clean-or-spotless.png"" height = ""450""></div><p>How likely do you think it is that the man will respond with each of the utterances below?</p>",,1539474,59,html-multi-slider-response,,6
17,Condition 1,0.0-9.0-0.17,,0,100,0,0,5069,They are cleanish,They are clean,They are spotless,<em>Something else</em>,0,"<div><img src=""./visual stimuli-exp/clean/0spotless.png"" height = ""450""></div><p>How likely do you think it is that the man will respond with each of the utterances below?</p>",,1544546,60,html-multi-slider-response,,7
3,Condition 1,0.0-5.0-0.0,,20,0,0,80,28453,It is warm,It is hot,It is scalding,<em>Something else</em>,0,"<div><img src=""./visual stimuli-exp/temperature/20degree.png"" height = ""450""></div><p>How likely do you think it is that the waiter will respond with each of the utterances below?</p>",,76650,5,html-multi-slider-response,,2
3,Condition 1,0.0-5.0-0.1,,20,80,0,0,18284,It is warm,It is hot,It is scalding,<em>Something else</em>,0,"<div><img src=""./visual stimuli-exp/temperature/80degree.png"" height = ""450""></div><p>How likely do you think it is that the waiter will respond with each of the utterances below?</p>",,94936,6,html-multi-slider-response,,8
3,Condition 1,0.0-5.0-0.2,,80,0,0,20,13545,It is warm,It is hot,It is scalding,<em>Something else</em>,0,"<div><img src=""./visual stimuli-exp/temperature/30degree.png"" height = ""450""></div><p>How likely do you think it is that the waiter will respond with each of the utterances below?</p>",,108483,7,html-multi-slider-response,,3
3,Condition 1,0.0-5.0-0.3,,0,100,0,0,15979,It is warm,It is hot,It is scalding,<em>Something else</em>,0,"<div><img src=""./visual stimuli-exp/temperature/90degree.png"" height = ""450""></div><p>How likely do you think it is that the waiter will respond with each of the utterances below?</p>",,124467,8,html-multi-slider-response,,9
3,Condition 1,0.0-5.0-0.4,,50,50,0,0,18648,It is warm,It is hot,It is scalding,<em>Something else</em>,0,"<div><img src=""./visual stimuli-exp/temperature/50degree.png"" height = ""450""></div><p>How likely do you think it is that the waiter will respond with each of the utterances below?</p>",,143117,9,html-multi-slider-response,,5
3,Condition 1,0.0-5.0-0.5,,60,40,0,0,21199,It is warm,It is hot,It is scalding,<em>Something else</em>,0,"<div><img src=""./visual stimuli-exp/temperature/60degree.png"" height = ""450""></div><p>How likely do you think it is that the waiter will respond with each of the utterances below?</p>",,164318,10,html-multi-slider-response,,6
3,Condition 1,0.0-5.0-0.6,,70,30,0,0,12642,It is warm,It is hot,It is scalding,<em>Something else</em>,0,"<div><img src=""./visual stimuli-exp/temperature/40degree.png"" height = ""450""></div><p>How likely do you think it is that the waiter will respond with each of the utterances below?</p>",,176961,11,html-multi-slider-response,,4
3,Condition 1,0.0-5.0-0.7,,0,0,0,100,6747,It is warm,It is hot,It is scalding,<em>Something else</em>,0,"<div><img src=""./visual stimuli-exp/temperature/10degree.png"" height = ""450""></div><p>How likely do you think it is that the waiter will respond with each of the utterances below?</p>",,183710,12,html-multi-slider-response,,1
3,Condition 1,0.0-5.0-0.8,,45,55,0,0,9309,It is warm,It is hot,It is scalding,<em>Something else</em>,0,"<div><img src=""./visual stimuli-exp/temperature/70degree.png"" height = ""450""></div><p>How likely do you think it is that the waiter will respond with each of the utterances below?</p>",,193021,13,html-multi-slider-response,,7
3,Condition 1,0.0-5.0-0.9,,34,66,0,0,8072,It is warm,It is hot,It is scalding,<em>Something else</em>,0,"<div><img src=""./visual stimuli-exp/temperature/60degree.png"" height = ""450""></div><p>How likely do you think it is that the waiter will respond with each of the utterances below?</p>",,201094,14,html-multi-slider-response,,6
3,Condition 1,0.0-5.0-0.10,,0,0,0,100,4000,It is warm,It is hot,It is scalding,<em>Something else</em>,0,"<div><img src=""./visual stimuli-exp/temperature/10degree.png"" height = ""450""></div><p>How likely do you think it is that the waiter will respond with each of the utterances below?</p>",,205096,15,html-multi-slider-response,,1
3,Condition 1,0.0-5.0-0.11,,25,75,0,0,6914,It is warm,It is hot,It is scalding,<em>Something else</em>,0,"<div><img src=""./visual stimuli-exp/temperature/70degree.png"" height = ""450""></div><p>How likely do you think it is that the waiter will respond with each of the utterances below?</p>",,212011,16,html-multi-slider-response,,7
3,Condition 1,0.0-5.0-0.12,,6,94,0,0,10118,It is warm,It is hot,It is scalding,<em>Something else</em>,0,"<div><img src=""./visual stimuli-exp/temperature/80degree.png"" height = ""450""></div><p>How likely do you think it is that the waiter will respond with each of the utterances below?</p>",,222130,17,html-multi-slider-response,,8
3,Condition 1,0.0-5.0-0.13,,70,30,0,0,19357,It is warm,It is hot,It is scalding,<em>Something else</em>,0,"<div><img src=""./visual stimuli-exp/temperature/40degree.png"" height = ""450""></div><p>How likely do you think it is that the waiter will respond with each of the utterances below?</p>",,241489,18,html-multi-slider-response,,4
3,Condition 1,0.0-5.0-0.14,,0,100,0,0,8639,It is warm,It is hot,It is scalding,<em>Something else</em>,0,"<div><img src=""./visual stimuli-exp/temperature/90degree.png"" height = ""450""></div><p>How likely do you think it is that the waiter will respond with each of the utterances below?</p>",,250129,19,html-multi-slider-response,,9
3,Condition 1,0.0-5.0-0.15,,89,0,0,11,10402,It is warm,It is hot,It is scalding,<em>Something else</em>,0,"<div><img src=""./visual stimuli-exp/temperature/30degree.png"" height = ""450""></div><p>How likely do you think it is that the waiter will respond with each of the utterances below?</p>",,260532,20,html-multi-slider-response,,3
3,Condition 1,0.0-5.0-0.16,,82,0,0,18,13826,It is warm,It is hot,It is scalding,<em>Something else</em>,0,"<div><img src=""./visual stimuli-exp/temperature/50degree.png"" height = ""450""></div><p>How likely do you think it is that the waiter will respond with each of the utterances below?</p>",,274360,21,html-multi-slider-response,,5
3,Condition 1,0.0-5.0-0.17,,31,0,0,69,6344,It is warm,It is hot,It is scalding,<em>Something else</em>,0,"<div><img src=""./visual stimuli-exp/temperature/20degree.png"" height = ""450""></div><p>How likely do you think it is that the waiter will respond with each of the utterances below?</p>",,280704,22,html-multi-slider-response,,2
3,Condition 1,0.0-7.0-0.0,,0,100,0,0,9088,He is a good student,He is an excellent student,He is a perfect student,<em>Something else</em>,0,"<div><img src=""./visual stimuli-exp/grades/3wrong.png"" height = ""450""></div><p>How likely do you think it is that the girl will respond with each of the utterances below?</p>",,307699,24,html-multi-slider-response,,7
3,Condition 1,0.0-7.0-0.1,,86,14,0,0,9266,He is a good student,He is an excellent student,He is a perfect student,<em>Something else</em>,0,"<div><img src=""./visual stimuli-exp/grades/7wrong.png"" height = ""450""></div><p>How likely do you think it is that the girl will respond with each of the utterances below?</p>",,316966,25,html-multi-slider-response,,5
3,Condition 1,0.0-7.0-0.2,,0,83,17,0,13689,He is a good student,He is an excellent student,He is a perfect student,<em>Something else</em>,0,"<div><img src=""./visual stimuli-exp/grades/1wrong.png"" height = ""450""></div><p>How likely do you think it is that the girl will respond with each of the utterances below?</p>",,330657,26,html-multi-slider-response,,8
3,Condition 1,0.0-7.0-0.3,,44,56,0,0,9724,He is a good student,He is an excellent student,He is a perfect student,<em>Something else</em>,0,"<div><img src=""./visual stimuli-exp/grades/9wrong.png"" height = ""450""></div><p>How likely do you think it is that the girl will respond with each of the utterances below?</p>",,340382,27,html-multi-slider-response,,4
3,Condition 1,0.0-7.0-0.4,,52,0,0,48,7905,He is a good student,He is an excellent student,He is a perfect student,<em>Something else</em>,0,"<div><img src=""./visual stimuli-exp/grades/13wrong.png"" height = ""450""></div><p>How likely do you think it is that the girl will respond with each of the utterances below?</p>",,348288,28,html-multi-slider-response,,2
3,Condition 1,0.0-7.0-0.5,,0,0,100,0,4961,He is a good student,He is an excellent student,He is a perfect student,<em>Something else</em>,0,"<div><img src=""./visual stimuli-exp/grades/0wrong.png"" height = ""450""></div><p>How likely do you think it is that the girl will respond with each of the utterances below?</p>",,353251,29,html-multi-slider-response,,9
3,Condition 1,0.0-7.0-0.6,,0,0,0,100,4480,He is a good student,He is an excellent student,He is a perfect student,<em>Something else</em>,0,"<div><img src=""./visual stimuli-exp/grades/30wrong.png"" height = ""450""></div><p>How likely do you think it is that the girl will respond with each of the utterances below?</p>",,357733,30,html-multi-slider-response,,1
3,Condition 1,0.0-7.0-0.7,,77,0,0,23,9670,He is a good student,He is an excellent student,He is a perfect student,<em>Something else</em>,0,"<div><img src=""./visual stimuli-exp/grades/11wrong.png"" height = ""450""></div><p>How likely do you think it is that the girl will respond with each of the utterances below?</p>",,367419,31,html-multi-slider-response,,3
3,Condition 1,0.0-7.0-0.8,,55,45,0,0,6246,He is a good student,He is an excellent student,He is a perfect student,<em>Something else</em>,0,"<div><img src=""./visual stimuli-exp/grades/5wrong.png"" height = ""450""></div><p>How likely do you think it is that the girl will respond with each of the utterances below?</p>",,373666,32,html-multi-slider-response,,6
3,Condition 1,0.0-7.0-0.9,,0,100,0,0,5529,He is a good student,He is an excellent student,He is a perfect student,<em>Something else</em>,0,"<div><img src=""./visual stimuli-exp/grades/3wrong.png"" height = ""450""></div><p>How likely do you think it is that the girl will respond with each of the utterances below?</p>",,379197,33,html-multi-slider-response,,7
3,Condition 1,0.0-7.0-0.10,,86,14,0,0,4260,He is a good student,He is an excellent student,He is a perfect student,<em>Something else</em>,0,"<div><img src=""./visual stimuli-exp/grades/9wrong.png"" height = ""450""></div><p>How likely do you think it is that the girl will respond with each of the utterances below?</p>",,383458,34,html-multi-slider-response,,4
3,Condition 1,0.0-7.0-0.11,,0,0,100,0,3997,He is a good student,He is an excellent student,He is a perfect student,<em>Something else</em>,0,"<div><img src=""./visual stimuli-exp/grades/0wrong.png"" height = ""450""></div><p>How likely do you think it is that the girl will respond with each of the utterances below?</p>",,387457,35,html-multi-slider-response,,9
3,Condition 1,0.0-7.0-0.12,,52,0,0,48,7232,He is a good student,He is an excellent student,He is a perfect student,<em>Something else</em>,0,"<div><img src=""./visual stimuli-exp/grades/13wrong.png"" height = ""450""></div><p>How likely do you think it is that the girl will respond with each of the utterances below?</p>",,394691,36,html-multi-slider-response,,2
3,Condition 1,0.0-7.0-0.13,,0,95,5,0,7249,He is a good student,He is an excellent student,He is a perfect student,<em>Something else</em>,0,"<div><img src=""./visual stimuli-exp/grades/1wrong.png"" height = ""450""></div><p>How likely do you think it is that the girl will respond with each of the utterances below?</p>",,401941,37,html-multi-slider-response,,8
3,Condition 1,0.0-7.0-0.14,,11,89,0,0,4566,He is a good student,He is an excellent student,He is a perfect student,<em>Something else</em>,0,"<div><img src=""./visual stimuli-exp/grades/7wrong.png"" height = ""450""></div><p>How likely do you think it is that the girl will respond with each of the utterances below?</p>",,406509,38,html-multi-slider-response,,5
3,Condition 1,0.0-7.0-0.15,,7,93,0,0,4190,He is a good student,He is an excellent student,He is a perfect student,<em>Something else</em>,0,"<div><img src=""./visual stimuli-exp/grades/5wrong.png"" height = ""450""></div><p>How likely do you think it is that the girl will respond with each of the utterances below?</p>",,410700,39,html-multi-slider-response,,6
3,Condition 1,0.0-7.0-0.16,,100,0,0,0,5825,He is a good student,He is an excellent student,He is a perfect student,<em>Something else</em>,0,"<div><img src=""./visual stimuli-exp/grades/11wrong.png"" height = ""450""></div><p>How likely do you think it is that the girl will respond with each of the utterances below?</p>",,416526,40,html-multi-slider-response,,3
3,Condition 1,0.0-7.0-0.17,,0,0,0,100,3690,He is a good student,He is an excellent student,He is a perfect student,<em>Something else</em>,0,"<div><img src=""./visual stimuli-exp/grades/30wrong.png"" height = ""450""></div><p>How likely do you think it is that the girl will respond with each of the utterances below?</p>",,420217,41,html-multi-slider-response,,1
3,Condition 1,0.0-9.0-0.0,,100,0,0,0,17328,They are cleanish,They are clean,They are spotless,<em>Something else</em>,0,"<div><img src=""./visual stimuli-exp/clean/30clean.png"" height = ""450""></div><p>How likely do you think it is that the man will respond with each of the utterances below?</p>",,450101,43,html-multi-slider-response,,4
3,Condition 1,0.0-9.0-0.1,,100,0,0,0,6225,They are cleanish,They are clean,They are spotless,<em>Something else</em>,0,"<div><img src=""./visual stimuli-exp/clean/15clean.png"" height = ""450""></div><p>How likely do you think it is that the man will respond with each of the utterances below?</p>",,456328,44,html-multi-slider-response,,5
3,Condition 1,0.0-9.0-0.2,,86,14,0,0,21712,They are cleanish,They are clean,They are spotless,<em>Something else</em>,0,"<div><img src=""./visual stimuli-exp/clean/0spotless.png"" height = ""450""></div><p>How likely do you think it is that the man will respond with each of the utterances below?</p>",,478041,45,html-multi-slider-response,,7
3,Condition 1,0.0-9.0-0.3,,100,0,0,0,8282,They are cleanish,They are clean,They are spotless,<em>Something else</em>,0,"<div><img src=""./visual stimuli-exp/clean/0clean-or-spotless.png"" height = ""450""></div><p>How likely do you think it is that the man will respond with each of the utterances below?</p>",,486324,46,html-multi-slider-response,,6
3,Condition 1,0.0-9.0-0.4,,0,0,0,100,7222,They are cleanish,They are clean,They are spotless,<em>Something else</em>,0,"<div><img src=""./visual stimuli-exp/clean/60dirty-withspots.png"" height = ""450""></div><p>How likely do you think it is that the man will respond with each of the utterances below?</p>",,493548,47,html-multi-slider-response,,2
3,Condition 1,0.0-9.0-0.5,,0,0,0,100,3565,They are cleanish,They are clean,They are spotless,<em>Something else</em>,0,"<div><img src=""./visual stimuli-exp/clean/45dirty-withspots.png"" height = ""450""></div><p>How likely do you think it is that the man will respond with each of the utterances below?</p>",,497115,48,html-multi-slider-response,,3
3,Condition 1,0.0-9.0-0.6,,0,0,100,0,7861,They are cleanish,They are clean,They are spotless,<em>Something else</em>,0,"<div><img src=""./visual stimuli-exp/clean/0spotless-light2.png"" height = ""450""></div><p>How likely do you think it is that the man will respond with each of the utterances below?</p>",,504977,49,html-multi-slider-response,,8
3,Condition 1,0.0-9.0-0.7,,0,0,100,0,3949,They are cleanish,They are clean,They are spotless,<em>Something else</em>,0,"<div><img src=""./visual stimuli-exp/clean/0spotless-light4.png"" height = ""450""></div><p>How likely do you think it is that the man will respond with each of the utterances below?</p>",,508927,50,html-multi-slider-response,,9
3,Condition 1,0.0-9.0-0.8,,0,0,0,100,3703,They are cleanish,They are clean,They are spotless,<em>Something else</em>,0,"<div><img src=""./visual stimuli-exp/clean/100dirty.png"" height = ""450""></div><p>How likely do you think it is that the man will respond with each of the utterances below?</p>",,512632,51,html-multi-slider-response,,1
3,Condition 1,0.0-9.0-0.9,,0,100,0,0,4967,They are cleanish,They are clean,They are spotless,<em>Something else</em>,0,"<div><img src=""./visual stimuli-exp/clean/0clean-or-spotless.png"" height = ""450""></div><p>How likely do you think it is that the man will respond with each of the utterances below?</p>",,517601,52,html-multi-slider-response,,6
3,Condition 1,0.0-9.0-0.10,,100,0,0,0,10587,They are cleanish,They are clean,They are spotless,<em>Something else</em>,0,"<div><img src=""./visual stimuli-exp/clean/30clean.png"" height = ""450""></div><p>How likely do you think it is that the man will respond with each of the utterances below?</p>",,528189,53,html-multi-slider-response,,4
3,Condition 1,0.0-9.0-0.11,,0,0,100,0,3740,They are cleanish,They are clean,They are spotless,<em>Something else</em>,0,"<div><img src=""./visual stimuli-exp/clean/0spotless-light2.png"" height = ""450""></div><p>How likely do you think it is that the man will respond with each of the utterances below?</p>",,531930,54,html-multi-slider-response,,8
3,Condition 1,0.0-9.0-0.12,,0,0,0,100,4380,They are cleanish,They are clean,They are spotless,<em>Something else</em>,0,"<div><img src=""./visual stimuli-exp/clean/60dirty-withspots.png"" height = ""450""></div><p>How likely do you think it is that the man will respond with each of the utterances below?</p>",,536312,55,html-multi-slider-response,,2
3,Condition 1,0.0-9.0-0.13,,0,0,0,100,4047,They are cleanish,They are clean,They are spotless,<em>Something else</em>,0,"<div><img src=""./visual stimuli-exp/clean/45dirty-withspots.png"" height = ""450""></div><p>How likely do you think it is that the man will respond with each of the utterances below?</p>",,540361,56,html-multi-slider-response,,3
3,Condition 1,0.0-9.0-0.14,,0,0,0,100,2711,They are cleanish,They are clean,They are spotless,<em>Something else</em>,0,"<div><img src=""./visual stimuli-exp/clean/100dirty.png"" height = ""450""></div><p>How likely do you think it is that the man will respond with each of the utterances below?</p>",,543074,57,html-multi-slider-response,,1
3,Condition 1,0.0-9.0-0.15,,0,0,100,0,3579,They are cleanish,They are clean,They are spotless,<em>Something else</em>,0,"<div><img src=""./visual stimuli-exp/clean/0spotless-light4.png"" height = ""450""></div><p>How likely do you think it is that the man will respond with each of the utterances below?</p>",,546655,58,html-multi-slider-response,,9
3,Condition 1,0.0-9.0-0.16,,0,100,0,0,3534,They are cleanish,They are clean,They are spotless,<em>Something else</em>,0,"<div><img src=""./visual stimuli-exp/clean/0spotless.png"" height = ""450""></div><p>How likely do you think it is that the man will respond with each of the utterances below?</p>",,550190,59,html-multi-slider-response,,7
3,Condition 1,0.0-9.0-0.17,,100,0,0,0,8190,They are cleanish,They are clean,They are spotless,<em>Something else</em>,0,"<div><img src=""./visual stimuli-exp/clean/15clean.png"" height = ""450""></div><p>How likely do you think it is that the man will respond with each of the utterances below?</p>",,558382,60,html-multi-slider-response,,5
9,Condition 1,0.0-5.0-0.0,,0,0,0,100,19261,It is warm,It is hot,It is scalding,<em>Something else</em>,0,"<div><img src=""./visual stimuli-exp/temperature/70degree.png"" height = ""450""></div><p>How likely do you think it is that the waiter will respond with each of the utterances below?</p>",,88281,5,html-multi-slider-response,,7
9,Condition 1,0.0-5.0-0.1,,0,0,0,100,10488,It is warm,It is hot,It is scalding,<em>Something else</em>,0,"<div><img src=""./visual stimuli-exp/temperature/60degree.png"" height = ""450""></div><p>How likely do you think it is that the waiter will respond with each of the utterances below?</p>",,98774,6,html-multi-slider-response,,6
9,Condition 1,0.0-5.0-0.2,,0,0,0,100,7715,It is warm,It is hot,It is scalding,<em>Something else</em>,0,"<div><img src=""./visual stimuli-exp/temperature/10degree.png"" height = ""450""></div><p>How likely do you think it is that the waiter will respond with each of the utterances below?</p>",,106491,7,html-multi-slider-response,,1
9,Condition 1,0.0-5.0-0.3,,0,100,0,0,8157,It is warm,It is hot,It is scalding,<em>Something else</em>,0,"<div><img src=""./visual stimuli-exp/temperature/40degree.png"" height = ""450""></div><p>How likely do you think it is that the waiter will respond with each of the utterances below?</p>",,114651,8,html-multi-slider-response,,4
9,Condition 1,0.0-5.0-0.4,,100,0,0,0,8043,It is warm,It is hot,It is scalding,<em>Something else</em>,0,"<div><img src=""./visual stimuli-exp/temperature/20degree.png"" height = ""450""></div><p>How likely do you think it is that the waiter will respond with each of the utterances below?</p>",,122697,9,html-multi-slider-response,,2
9,Condition 1,0.0-5.0-0.5,,0,0,100,0,6465,It is warm,It is hot,It is scalding,<em>Something else</em>,0,"<div><img src=""./visual stimuli-exp/temperature/90degree.png"" height = ""450""></div><p>How likely do you think it is that the waiter will respond with each of the utterances below?</p>",,129164,10,html-multi-slider-response,,9
9,Condition 1,0.0-5.0-0.6,,100,0,0,0,13429,It is warm,It is hot,It is scalding,<em>Something else</em>,0,"<div><img src=""./visual stimuli-exp/temperature/50degree.png"" height = ""450""></div><p>How likely do you think it is that the waiter will respond with each of the utterances below?</p>",,142596,11,html-multi-slider-response,,5
9,Condition 1,0.0-5.0-0.7,,100,0,0,0,9958,It is warm,It is hot,It is scalding,<em>Something else</em>,0,"<div><img src=""./visual stimuli-exp/temperature/30degree.png"" height = ""450""></div><p>How likely do you think it is that the waiter will respond with each of the utterances below?</p>",,152556,12,html-multi-slider-response,,3
9,Condition 1,0.0-5.0-0.8,,0,100,0,0,24332,It is warm,It is hot,It is scalding,<em>Something else</em>,0,"<div><img src=""./visual stimuli-exp/temperature/80degree.png"" height = ""450""></div><p>How likely do you think it is that the waiter will respond with each of the utterances below?</p>",,176889,13,html-multi-slider-response,,8
9,Condition 1,0.0-5.0-0.9,,0,0,0,100,14286,It is warm,It is hot,It is scalding,<em>Something else</em>,0,"<div><img src=""./visual stimuli-exp/temperature/30degree.png"" height = ""450""></div><p>How likely do you think it is that the waiter will respond with each of the utterances below?</p>",,191179,14,html-multi-slider-response,,3
9,Condition 1,0.0-5.0-0.10,,0,0,100,0,14566,It is warm,It is hot,It is scalding,<em>Something else</em>,0,"<div><img src=""./visual stimuli-exp/temperature/90degree.png"" height = ""450""></div><p>How likely do you think it is that the waiter will respond with each of the utterances below?</p>",,205746,15,html-multi-slider-response,,9
9,Condition 1,0.0-5.0-0.11,,100,0,0,0,16503,It is warm,It is hot,It is scalding,<em>Something else</em>,0,"<div><img src=""./visual stimuli-exp/temperature/20degree.png"" height = ""450""></div><p>How likely do you think it is that the waiter will respond with each of the utterances below?</p>",,222251,16,html-multi-slider-response,,2
9,Condition 1,0.0-5.0-0.12,,100,0,0,0,20532,It is warm,It is hot,It is scalding,<em>Something else</em>,0,"<div><img src=""./visual stimuli-exp/temperature/40degree.png"" height = ""450""></div><p>How likely do you think it is that the waiter will respond with each of the utterances below?</p>",,242785,17,html-multi-slider-response,,4
9,Condition 1,0.0-5.0-0.13,,0,0,0,100,7971,It is warm,It is hot,It is scalding,<em>Something else</em>,0,"<div><img src=""./visual stimuli-exp/temperature/50degree.png"" height = ""450""></div><p>How likely do you think it is that the waiter will respond with each of the utterances below?</p>",,250758,18,html-multi-slider-response,,5
9,Condition 1,0.0-5.0-0.14,,0,100,0,0,7940,It is warm,It is hot,It is scalding,<em>Something else</em>,0,"<div><img src=""./visual stimuli-exp/temperature/70degree.png"" height = ""450""></div><p>How likely do you think it is that the waiter will respond with each of the utterances below?</p>",,258700,19,html-multi-slider-response,,7
9,Condition 1,0.0-5.0-0.15,,100,0,0,0,9910,It is warm,It is hot,It is scalding,<em>Something else</em>,0,"<div><img src=""./visual stimuli-exp/temperature/10degree.png"" height = ""450""></div><p>How likely do you think it is that the waiter will respond with each of the utterances below?</p>",,268612,20,html-multi-slider-response,,1
