workerid,proliferate.condition,internal_node_id,response,response_0,response_1,response_2,response_3,response_4,response_5,response_6,response_7,response_8,rt,stimulus,success,target_image_0,target_image_1,target_image_2,target_image_3,target_image_4,target_image_5,target_image_6,target_image_7,target_image_8,time_elapsed,trial_index,trial_type,error
47,Condition 1,0.0-0.0,1,,,,,,,,,,1841,"<div class=""consent-form""><p><img src=""consent_header.png""></p><p style=""text-align:center;font-weight:bold;"">ONLINE INFORMATION SHEET</p><p><strong>Title of Project</strong>: The cognitive basis of pragmatic inferences</p><p>This study has been approved by the RD Ethics Chair as LING-2021-01-21</p><p>&nbsp;</p><p><strong>Name, Address and Contact Details of Principal Investigator:</strong></p><p>Richard Breheny (<a href=""mailto:r.breheny@ucl.ac.uk"">r.breheny@ucl.ac.uk</a>)<br>UCL Linguistics<br>Division of Psychology and Language Sciences<br>Chandler House<br>2 Wakefield Street<br>London WC1N 1PF</p><p>&nbsp;</p><p><strong>Other investigators:</strong></p><p>Sebastian Schuster, Bokun Li</p><p>&nbsp;</p><p>We would like to invite you to participate in this research project. You should only participate if you want to. Choosing not to take part will not disadvantage you in any way. Before you decide whether you want to take part, please read the following information carefully. Please contact us if there is anything that is not clear or if you would like more information (<a href=""mailto:s.schuster@ucl.ac.uk"">s.schuster@ucl.ac.uk</a>).</p><p>&nbsp;</p><p><strong>Details of Study</strong></p><p>This study forms part of a research project under the supervision of Professor Richard Breheny in the Linguistics Department of the UCL Division of Psychology and Language Sciences which looks at how people process language. The study addresses the question of how people read more into communication than the actual words say. We will record participants' responses and responses may be timed.</p><p>&nbsp;</p><p><strong>Possible risks and benefits</strong></p><p>The testing session will take approximately <strong>8 minutes</strong> (including breaks). You are free to withdraw from the experiment at any time.  Once you have completed the experiment, you will be redirected to the recruitment platform you used to access our study, and you will be compensated for your time.</p><p>It is up to you to decide whether or not to take part. If you do decide to take part, you will be asked to provide an informed consent. Even after agreeing to take part, you can still withdraw at any time and without giving a reason.</p><p>All data are collected and stored in accordance with the provisions of the General Data Protection Regulations and the Data Protection Act 2018.</p><p>&nbsp;</p></div>",,,,,,,,,,,1845,0,html-button-response,
47,Condition 1,0.0-1.0,1,,,,,,,,,,1498,"<div class=""consent-form""><p><img src=""consent_header.png""></p><p style=""text-align:center;font-weight:bold;"">ONLINE CONSENT FORM</p><p><strong>Title of Project</strong>: The cognitive basis of pragmatic inferences</p><p>This study forms part of a research project under the supervision of Professor Richard Breheny in the Linguistics Department of the UCL Division of Psychology and Language Sciences. This study has been approved by the RD Ethics Chair as LING-2021-01-21</p><p>Please read the following information carefully:</p><ul><li>You have read and understood the information sheet explaining the project, risks and benefits.</li><li>You understand that you have the right to withdraw at any point during the study, for any reason, and without any prejudice.</li><li>You understand that you must not participate if you suffer from photosensitive epilepsy.</li><li>You consent to the processing of the anonymised data collected for the purposes of this study only and not for any other purposes.</li><li>You consent to the processing of the anonymised data collected for the purposes of this study only and not for any other purposes.</li><li>All data are collected and stored in accordance with the provisions of the General Data Protection Regulations and the Data Protection Act 2018. If you are concerned about how the data is being processed, please contact UCL in the first instance at data-protection@ucl.ac.uk</li></ul><p>If you would like to contact the Principal Investigator in the study to discuss this research, please e-mail <a href=""mailto:r.breheny@ucl.ac.uk"">r.breheny@ucl.ac.uk</a>.</p><p>&nbsp;</p></div>",,,,,,,,,,,3344,1,html-button-response,
47,Condition 1,0.0-2.0, ,,,,,,,,,,15625,"In this experiment, you will see several scenes and answer questions about them. On each slide, you will see one scene and several relevant images. Please distribute 10 coins across the likely images based on the conversation in the scene.<br>Note: You are not required to assign coins to every image, so please distribute the coins only among the likely images.<br>The experiment is conducted in fullscreen mode. When you're ready to begin, please press the space bar.",,,,,,,,,,,18969,2,html-keyboard-response,
47,Condition 1,0.0-3.0,,,,,,,,,,,2484,,True,,,,,,,,,,22457,3,fullscreen,
47,Condition 1,0.0-4.0,0,,,,,,,,,,22840,"<p>The experiment is divided into three parts. In the first part, you will see a similar scene as the one presented below. In each scene, the person on the left is waiting for some hot water for a cup of tea and asks the waiter whether the water is ready. The waiter checks the temperature on the thermometer and then gives a relevant response.</p><div><img src=""./visual stimuli-exp/temperature/visualized_temperature_context/visualized_warm.png"" height = ""450""></div>",,,,,,,,,,,45297,4,html-button-response,
47,Condition 1,0.0-5.0-0.0,,0,0,0,0,0,0,0,4,6,23423,"<div><img src=""./visual stimuli-exp/temperature/visualized_temperature_context/visualized_scalding.png"" height = ""270""></div><p style=""margin: 8px 0px;"">Which thermometer do you think is showing the temperature of the water in the cup? Use the ""+"" and ""&ndash;"" buttons to distribute 10 coins across the likely thermometers.</p>",,./visual stimuli-exp/temperature/adjusted_temperature/10.png,./visual stimuli-exp/temperature/adjusted_temperature/20.png,./visual stimuli-exp/temperature/adjusted_temperature/30.png,./visual stimuli-exp/temperature/adjusted_temperature/40.png,./visual stimuli-exp/temperature/adjusted_temperature/50.png,./visual stimuli-exp/temperature/adjusted_temperature/60.png,./visual stimuli-exp/temperature/adjusted_temperature/70.png,./visual stimuli-exp/temperature/adjusted_temperature/80.png,./visual stimuli-exp/temperature/adjusted_temperature/90.png,68722,5,html-coin-betting-response,
47,Condition 1,0.0-5.0-0.1,,0,0,0,0,3,7,0,0,0,9998,"<div><img src=""./visual stimuli-exp/temperature/visualized_temperature_context/visualized_hot.png"" height = ""270""></div><p style=""margin: 8px 0px;"">Which thermometer do you think is showing the temperature of the water in the cup? Use the ""+"" and ""&ndash;"" buttons to distribute 10 coins across the likely thermometers.</p>",,./visual stimuli-exp/temperature/adjusted_temperature/10.png,./visual stimuli-exp/temperature/adjusted_temperature/20.png,./visual stimuli-exp/temperature/adjusted_temperature/30.png,./visual stimuli-exp/temperature/adjusted_temperature/40.png,./visual stimuli-exp/temperature/adjusted_temperature/50.png,./visual stimuli-exp/temperature/adjusted_temperature/60.png,./visual stimuli-exp/temperature/adjusted_temperature/70.png,./visual stimuli-exp/temperature/adjusted_temperature/80.png,./visual stimuli-exp/temperature/adjusted_temperature/90.png,78722,6,html-coin-betting-response,
47,Condition 1,0.0-5.0-0.2,,0,0,0,7,3,0,0,0,0,9650,"<div><img src=""./visual stimuli-exp/temperature/visualized_temperature_context/visualized_warm.png"" height = ""270""></div><p style=""margin: 8px 0px;"">Which thermometer do you think is showing the temperature of the water in the cup? Use the ""+"" and ""&ndash;"" buttons to distribute 10 coins across the likely thermometers.</p>",,./visual stimuli-exp/temperature/adjusted_temperature/10.png,./visual stimuli-exp/temperature/adjusted_temperature/20.png,./visual stimuli-exp/temperature/adjusted_temperature/30.png,./visual stimuli-exp/temperature/adjusted_temperature/40.png,./visual stimuli-exp/temperature/adjusted_temperature/50.png,./visual stimuli-exp/temperature/adjusted_temperature/60.png,./visual stimuli-exp/temperature/adjusted_temperature/70.png,./visual stimuli-exp/temperature/adjusted_temperature/80.png,./visual stimuli-exp/temperature/adjusted_temperature/90.png,88374,7,html-coin-betting-response,
47,Condition 1,0.0-5.0-0.3,,0,0,0,0,0,0,0,3,7,5468,"<div><img src=""./visual stimuli-exp/temperature/visualized_temperature_context/visualized_scalding.png"" height = ""270""></div><p style=""margin: 8px 0px;"">Which thermometer do you think is showing the temperature of the water in the cup? Use the ""+"" and ""&ndash;"" buttons to distribute 10 coins across the likely thermometers.</p>",,./visual stimuli-exp/temperature/adjusted_temperature/10.png,./visual stimuli-exp/temperature/adjusted_temperature/20.png,./visual stimuli-exp/temperature/adjusted_temperature/30.png,./visual stimuli-exp/temperature/adjusted_temperature/40.png,./visual stimuli-exp/temperature/adjusted_temperature/50.png,./visual stimuli-exp/temperature/adjusted_temperature/60.png,./visual stimuli-exp/temperature/adjusted_temperature/70.png,./visual stimuli-exp/temperature/adjusted_temperature/80.png,./visual stimuli-exp/temperature/adjusted_temperature/90.png,93843,8,html-coin-betting-response,
47,Condition 1,0.0-5.0-0.4,,0,0,0,0,2,4,4,0,0,10763,"<div><img src=""./visual stimuli-exp/temperature/visualized_temperature_context/visualized_hot.png"" height = ""270""></div><p style=""margin: 8px 0px;"">Which thermometer do you think is showing the temperature of the water in the cup? Use the ""+"" and ""&ndash;"" buttons to distribute 10 coins across the likely thermometers.</p>",,./visual stimuli-exp/temperature/adjusted_temperature/10.png,./visual stimuli-exp/temperature/adjusted_temperature/20.png,./visual stimuli-exp/temperature/adjusted_temperature/30.png,./visual stimuli-exp/temperature/adjusted_temperature/40.png,./visual stimuli-exp/temperature/adjusted_temperature/50.png,./visual stimuli-exp/temperature/adjusted_temperature/60.png,./visual stimuli-exp/temperature/adjusted_temperature/70.png,./visual stimuli-exp/temperature/adjusted_temperature/80.png,./visual stimuli-exp/temperature/adjusted_temperature/90.png,104608,9,html-coin-betting-response,
47,Condition 1,0.0-5.0-0.5,,0,0,5,4,1,0,0,0,0,11343,"<div><img src=""./visual stimuli-exp/temperature/visualized_temperature_context/visualized_warm.png"" height = ""270""></div><p style=""margin: 8px 0px;"">Which thermometer do you think is showing the temperature of the water in the cup? Use the ""+"" and ""&ndash;"" buttons to distribute 10 coins across the likely thermometers.</p>",,./visual stimuli-exp/temperature/adjusted_temperature/10.png,./visual stimuli-exp/temperature/adjusted_temperature/20.png,./visual stimuli-exp/temperature/adjusted_temperature/30.png,./visual stimuli-exp/temperature/adjusted_temperature/40.png,./visual stimuli-exp/temperature/adjusted_temperature/50.png,./visual stimuli-exp/temperature/adjusted_temperature/60.png,./visual stimuli-exp/temperature/adjusted_temperature/70.png,./visual stimuli-exp/temperature/adjusted_temperature/80.png,./visual stimuli-exp/temperature/adjusted_temperature/90.png,115953,10,html-coin-betting-response,
47,Condition 1,0.0-6.0,0,,,,,,,,,,5715,"<p>Congratulations! You have completed the first part. In the second part, you will see scenes similar to the one presented below. In each scene, the boy on the left is wondering about Jack's academic performance but he hasn't seen any of Jack's test results. The girl on the right answers his question based on Jack's most recent test results, which are shown in the middle.</p><div><img src='./visual stimuli-exp/grades/visualized_grades_context/visualized_good.png' height = '450'></div>",,,,,,,,,,,121669,11,html-button-response,
47,Condition 1,0.0-7.0-0.0,,0,0,0,1,4,5,0,0,0,10150,"<div><img src=""./visual stimuli-exp/grades/visualized_grades_context/visualized_good.png"" height = ""330""></div><p style=""margin: 8px 0px;"">Which examination sheet do you think is on the desk? Use the ""+"" and ""&ndash;"" buttons to distribute 10 coins across the likely examination sheets.</p>",,./visual stimuli-exp/grades/adjusted_grades/30_wrong.png,./visual stimuli-exp/grades/adjusted_grades/13_wrong.png,./visual stimuli-exp/grades/adjusted_grades/11_wrong.png,./visual stimuli-exp/grades/adjusted_grades/9_wrong.png,./visual stimuli-exp/grades/adjusted_grades/7_wrong.png,./visual stimuli-exp/grades/adjusted_grades/5_wrong.png,./visual stimuli-exp/grades/adjusted_grades/3_wrong.png,./visual stimuli-exp/grades/adjusted_grades/1_wrong.png,./visual stimuli-exp/grades/adjusted_grades/0_wrong.png,131820,12,html-coin-betting-response,
47,Condition 1,0.0-7.0-0.1,,0,0,0,0,0,0,0,0,10,5918,"<div><img src=""./visual stimuli-exp/grades/visualized_grades_context/visualized_perfect.png"" height = ""330""></div><p style=""margin: 8px 0px;"">Which examination sheet do you think is on the desk? Use the ""+"" and ""&ndash;"" buttons to distribute 10 coins across the likely examination sheets.</p>",,./visual stimuli-exp/grades/adjusted_grades/30_wrong.png,./visual stimuli-exp/grades/adjusted_grades/13_wrong.png,./visual stimuli-exp/grades/adjusted_grades/11_wrong.png,./visual stimuli-exp/grades/adjusted_grades/9_wrong.png,./visual stimuli-exp/grades/adjusted_grades/7_wrong.png,./visual stimuli-exp/grades/adjusted_grades/5_wrong.png,./visual stimuli-exp/grades/adjusted_grades/3_wrong.png,./visual stimuli-exp/grades/adjusted_grades/1_wrong.png,./visual stimuli-exp/grades/adjusted_grades/0_wrong.png,137740,13,html-coin-betting-response,
47,Condition 1,0.0-7.0-0.2,,0,0,0,0,0,0,5,5,0,5321,"<div><img src=""./visual stimuli-exp/grades/visualized_grades_context/visualized_excellent.png"" height = ""330""></div><p style=""margin: 8px 0px;"">Which examination sheet do you think is on the desk? Use the ""+"" and ""&ndash;"" buttons to distribute 10 coins across the likely examination sheets.</p>",,./visual stimuli-exp/grades/adjusted_grades/30_wrong.png,./visual stimuli-exp/grades/adjusted_grades/13_wrong.png,./visual stimuli-exp/grades/adjusted_grades/11_wrong.png,./visual stimuli-exp/grades/adjusted_grades/9_wrong.png,./visual stimuli-exp/grades/adjusted_grades/7_wrong.png,./visual stimuli-exp/grades/adjusted_grades/5_wrong.png,./visual stimuli-exp/grades/adjusted_grades/3_wrong.png,./visual stimuli-exp/grades/adjusted_grades/1_wrong.png,./visual stimuli-exp/grades/adjusted_grades/0_wrong.png,143062,14,html-coin-betting-response,
47,Condition 1,0.0-7.0-0.3,,0,0,0,0,0,0,0,0,10,8697,"<div><img src=""./visual stimuli-exp/grades/visualized_grades_context/visualized_perfect.png"" height = ""330""></div><p style=""margin: 8px 0px;"">Which examination sheet do you think is on the desk? Use the ""+"" and ""&ndash;"" buttons to distribute 10 coins across the likely examination sheets.</p>",,./visual stimuli-exp/grades/adjusted_grades/30_wrong.png,./visual stimuli-exp/grades/adjusted_grades/13_wrong.png,./visual stimuli-exp/grades/adjusted_grades/11_wrong.png,./visual stimuli-exp/grades/adjusted_grades/9_wrong.png,./visual stimuli-exp/grades/adjusted_grades/7_wrong.png,./visual stimuli-exp/grades/adjusted_grades/5_wrong.png,./visual stimuli-exp/grades/adjusted_grades/3_wrong.png,./visual stimuli-exp/grades/adjusted_grades/1_wrong.png,./visual stimuli-exp/grades/adjusted_grades/0_wrong.png,151759,15,html-coin-betting-response,
47,Condition 1,0.0-7.0-0.4,,0,0,0,0,0,0,4,6,0,6738,"<div><img src=""./visual stimuli-exp/grades/visualized_grades_context/visualized_excellent.png"" height = ""330""></div><p style=""margin: 8px 0px;"">Which examination sheet do you think is on the desk? Use the ""+"" and ""&ndash;"" buttons to distribute 10 coins across the likely examination sheets.</p>",,./visual stimuli-exp/grades/adjusted_grades/30_wrong.png,./visual stimuli-exp/grades/adjusted_grades/13_wrong.png,./visual stimuli-exp/grades/adjusted_grades/11_wrong.png,./visual stimuli-exp/grades/adjusted_grades/9_wrong.png,./visual stimuli-exp/grades/adjusted_grades/7_wrong.png,./visual stimuli-exp/grades/adjusted_grades/5_wrong.png,./visual stimuli-exp/grades/adjusted_grades/3_wrong.png,./visual stimuli-exp/grades/adjusted_grades/1_wrong.png,./visual stimuli-exp/grades/adjusted_grades/0_wrong.png,158499,16,html-coin-betting-response,
47,Condition 1,0.0-7.0-0.5,,0,0,0,0,5,5,0,0,0,5785,"<div><img src=""./visual stimuli-exp/grades/visualized_grades_context/visualized_good.png"" height = ""330""></div><p style=""margin: 8px 0px;"">Which examination sheet do you think is on the desk? Use the ""+"" and ""&ndash;"" buttons to distribute 10 coins across the likely examination sheets.</p>",,./visual stimuli-exp/grades/adjusted_grades/30_wrong.png,./visual stimuli-exp/grades/adjusted_grades/13_wrong.png,./visual stimuli-exp/grades/adjusted_grades/11_wrong.png,./visual stimuli-exp/grades/adjusted_grades/9_wrong.png,./visual stimuli-exp/grades/adjusted_grades/7_wrong.png,./visual stimuli-exp/grades/adjusted_grades/5_wrong.png,./visual stimuli-exp/grades/adjusted_grades/3_wrong.png,./visual stimuli-exp/grades/adjusted_grades/1_wrong.png,./visual stimuli-exp/grades/adjusted_grades/0_wrong.png,164285,17,html-coin-betting-response,
47,Condition 1,0.0-8.0,0,,,,,,,,,,19062,"<p>Congratulations! You have completed the second task. In the third part, you will see scenes similar to the one presented below. In each scene, the woman on the left is managing several buildings and needs to know whether the windows of one of the buildings need to be cleaned. She calls her colleague who works in that building to ask him about the state of the windows. The man gives a relevant answer after checking the cleanliness of the windows.</p><div><img src='./visual stimuli-exp/clean/visualized_cleaness_context/visualized_cleanish.png' height = '450'></div>",,,,,,,,,,,183347,18,html-button-response,
47,Condition 1,0.0-9.0-0.0,,0,0,0,0,0,0,0,4,6,9347,"<div><img src=""./visual stimuli-exp/clean/visualized_cleaness_context/visualized_clean.png"" height = ""310""></div><p style=""margin: 8px 0px;"">Which window do you think the man is looking at? Use the ""+"" and ""&ndash;"" buttons to distribute 10 coins across the likely windows.</p>",,./visual stimuli-exp/clean/adjusted_cleaness/100-dirty.png,./visual stimuli-exp/clean/adjusted_cleaness/60-dirty-with-spots.png,./visual stimuli-exp/clean/adjusted_cleaness/45-dirty-with-spots.png,./visual stimuli-exp/clean/adjusted_cleaness/30-clean.png,./visual stimuli-exp/clean/adjusted_cleaness/15-clean.png,./visual stimuli-exp/clean/adjusted_cleaness/0-clean-spotless.png,./visual stimuli-exp/clean/adjusted_cleaness/0-spotless.png,./visual stimuli-exp/clean/adjusted_cleaness/0-spotless-light-2.png,./visual stimuli-exp/clean/adjusted_cleaness/0-spotless-light-4.png,192695,19,html-coin-betting-response,
47,Condition 1,0.0-9.0-0.1,,0,0,0,0,5,5,0,0,0,8399,"<div><img src=""./visual stimuli-exp/clean/visualized_cleaness_context/visualized_cleanish.png"" height = ""310""></div><p style=""margin: 8px 0px;"">Which window do you think the man is looking at? Use the ""+"" and ""&ndash;"" buttons to distribute 10 coins across the likely windows.</p>",,./visual stimuli-exp/clean/adjusted_cleaness/100-dirty.png,./visual stimuli-exp/clean/adjusted_cleaness/60-dirty-with-spots.png,./visual stimuli-exp/clean/adjusted_cleaness/45-dirty-with-spots.png,./visual stimuli-exp/clean/adjusted_cleaness/30-clean.png,./visual stimuli-exp/clean/adjusted_cleaness/15-clean.png,./visual stimuli-exp/clean/adjusted_cleaness/0-clean-spotless.png,./visual stimuli-exp/clean/adjusted_cleaness/0-spotless.png,./visual stimuli-exp/clean/adjusted_cleaness/0-spotless-light-2.png,./visual stimuli-exp/clean/adjusted_cleaness/0-spotless-light-4.png,201096,20,html-coin-betting-response,
47,Condition 1,0.0-9.0-0.2,,0,0,0,0,0,0,0,0,10,5455,"<div><img src=""./visual stimuli-exp/clean/visualized_cleaness_context/visualized_spotless.png"" height = ""310""></div><p style=""margin: 8px 0px;"">Which window do you think the man is looking at? Use the ""+"" and ""&ndash;"" buttons to distribute 10 coins across the likely windows.</p>",,./visual stimuli-exp/clean/adjusted_cleaness/100-dirty.png,./visual stimuli-exp/clean/adjusted_cleaness/60-dirty-with-spots.png,./visual stimuli-exp/clean/adjusted_cleaness/45-dirty-with-spots.png,./visual stimuli-exp/clean/adjusted_cleaness/30-clean.png,./visual stimuli-exp/clean/adjusted_cleaness/15-clean.png,./visual stimuli-exp/clean/adjusted_cleaness/0-clean-spotless.png,./visual stimuli-exp/clean/adjusted_cleaness/0-spotless.png,./visual stimuli-exp/clean/adjusted_cleaness/0-spotless-light-2.png,./visual stimuli-exp/clean/adjusted_cleaness/0-spotless-light-4.png,206552,21,html-coin-betting-response,
47,Condition 1,0.0-9.0-0.3,,0,0,0,0,0,0,0,0,10,5647,"<div><img src=""./visual stimuli-exp/clean/visualized_cleaness_context/visualized_spotless.png"" height = ""310""></div><p style=""margin: 8px 0px;"">Which window do you think the man is looking at? Use the ""+"" and ""&ndash;"" buttons to distribute 10 coins across the likely windows.</p>",,./visual stimuli-exp/clean/adjusted_cleaness/100-dirty.png,./visual stimuli-exp/clean/adjusted_cleaness/60-dirty-with-spots.png,./visual stimuli-exp/clean/adjusted_cleaness/45-dirty-with-spots.png,./visual stimuli-exp/clean/adjusted_cleaness/30-clean.png,./visual stimuli-exp/clean/adjusted_cleaness/15-clean.png,./visual stimuli-exp/clean/adjusted_cleaness/0-clean-spotless.png,./visual stimuli-exp/clean/adjusted_cleaness/0-spotless.png,./visual stimuli-exp/clean/adjusted_cleaness/0-spotless-light-2.png,./visual stimuli-exp/clean/adjusted_cleaness/0-spotless-light-4.png,212201,22,html-coin-betting-response,
47,Condition 1,0.0-9.0-0.4,,0,0,0,0,0,5,5,0,0,4271,"<div><img src=""./visual stimuli-exp/clean/visualized_cleaness_context/visualized_clean.png"" height = ""310""></div><p style=""margin: 8px 0px;"">Which window do you think the man is looking at? Use the ""+"" and ""&ndash;"" buttons to distribute 10 coins across the likely windows.</p>",,./visual stimuli-exp/clean/adjusted_cleaness/100-dirty.png,./visual stimuli-exp/clean/adjusted_cleaness/60-dirty-with-spots.png,./visual stimuli-exp/clean/adjusted_cleaness/45-dirty-with-spots.png,./visual stimuli-exp/clean/adjusted_cleaness/30-clean.png,./visual stimuli-exp/clean/adjusted_cleaness/15-clean.png,./visual stimuli-exp/clean/adjusted_cleaness/0-clean-spotless.png,./visual stimuli-exp/clean/adjusted_cleaness/0-spotless.png,./visual stimuli-exp/clean/adjusted_cleaness/0-spotless-light-2.png,./visual stimuli-exp/clean/adjusted_cleaness/0-spotless-light-4.png,216473,23,html-coin-betting-response,
47,Condition 1,0.0-9.0-0.5,,0,0,0,5,5,0,0,0,0,6469,"<div><img src=""./visual stimuli-exp/clean/visualized_cleaness_context/visualized_cleanish.png"" height = ""310""></div><p style=""margin: 8px 0px;"">Which window do you think the man is looking at? Use the ""+"" and ""&ndash;"" buttons to distribute 10 coins across the likely windows.</p>",,./visual stimuli-exp/clean/adjusted_cleaness/100-dirty.png,./visual stimuli-exp/clean/adjusted_cleaness/60-dirty-with-spots.png,./visual stimuli-exp/clean/adjusted_cleaness/45-dirty-with-spots.png,./visual stimuli-exp/clean/adjusted_cleaness/30-clean.png,./visual stimuli-exp/clean/adjusted_cleaness/15-clean.png,./visual stimuli-exp/clean/adjusted_cleaness/0-clean-spotless.png,./visual stimuli-exp/clean/adjusted_cleaness/0-spotless.png,./visual stimuli-exp/clean/adjusted_cleaness/0-spotless-light-2.png,./visual stimuli-exp/clean/adjusted_cleaness/0-spotless-light-4.png,222943,24,html-coin-betting-response,
47,Condition 1,0.0-10.0,,,,,,,,,,,,,True,,,,,,,,,,223956,25,fullscreen,
47,Condition 1,0.0-11.0,{'Comment': ''},,,,,,,,,,2156,,,,,,,,,,,,226120,26,survey-text,
47,Condition 1,0.0-12.0,,,,,,,,,,,,"<p style = ""font-size: 25px;"">Thank you for your participation.<br>This is the end of the experiment and you will now be redirected to Prolific.</p>",,,,,,,,,,,228128,27,html-keyboard-response,
54,Condition 1,0.0-0.0,1,,,,,,,,,,18668,"<div class=""consent-form""><p><img src=""consent_header.png""></p><p style=""text-align:center;font-weight:bold;"">ONLINE INFORMATION SHEET</p><p><strong>Title of Project</strong>: The cognitive basis of pragmatic inferences</p><p>This study has been approved by the RD Ethics Chair as LING-2021-01-21</p><p>&nbsp;</p><p><strong>Name, Address and Contact Details of Principal Investigator:</strong></p><p>Richard Breheny (<a href=""mailto:r.breheny@ucl.ac.uk"">r.breheny@ucl.ac.uk</a>)<br>UCL Linguistics<br>Division of Psychology and Language Sciences<br>Chandler House<br>2 Wakefield Street<br>London WC1N 1PF</p><p>&nbsp;</p><p><strong>Other investigators:</strong></p><p>Sebastian Schuster, Bokun Li</p><p>&nbsp;</p><p>We would like to invite you to participate in this research project. You should only participate if you want to. Choosing not to take part will not disadvantage you in any way. Before you decide whether you want to take part, please read the following information carefully. Please contact us if there is anything that is not clear or if you would like more information (<a href=""mailto:s.schuster@ucl.ac.uk"">s.schuster@ucl.ac.uk</a>).</p><p>&nbsp;</p><p><strong>Details of Study</strong></p><p>This study forms part of a research project under the supervision of Professor Richard Breheny in the Linguistics Department of the UCL Division of Psychology and Language Sciences which looks at how people process language. The study addresses the question of how people read more into communication than the actual words say. We will record participants' responses and responses may be timed.</p><p>&nbsp;</p><p><strong>Possible risks and benefits</strong></p><p>The testing session will take approximately <strong>8 minutes</strong> (including breaks). You are free to withdraw from the experiment at any time.  Once you have completed the experiment, you will be redirected to the recruitment platform you used to access our study, and you will be compensated for your time.</p><p>It is up to you to decide whether or not to take part. If you do decide to take part, you will be asked to provide an informed consent. Even after agreeing to take part, you can still withdraw at any time and without giving a reason.</p><p>All data are collected and stored in accordance with the provisions of the General Data Protection Regulations and the Data Protection Act 2018.</p><p>&nbsp;</p></div>",,,,,,,,,,,18680,0,html-button-response,
54,Condition 1,0.0-1.0,1,,,,,,,,,,4451,"<div class=""consent-form""><p><img src=""consent_header.png""></p><p style=""text-align:center;font-weight:bold;"">ONLINE CONSENT FORM</p><p><strong>Title of Project</strong>: The cognitive basis of pragmatic inferences</p><p>This study forms part of a research project under the supervision of Professor Richard Breheny in the Linguistics Department of the UCL Division of Psychology and Language Sciences. This study has been approved by the RD Ethics Chair as LING-2021-01-21</p><p>Please read the following information carefully:</p><ul><li>You have read and understood the information sheet explaining the project, risks and benefits.</li><li>You understand that you have the right to withdraw at any point during the study, for any reason, and without any prejudice.</li><li>You understand that you must not participate if you suffer from photosensitive epilepsy.</li><li>You consent to the processing of the anonymised data collected for the purposes of this study only and not for any other purposes.</li><li>You consent to the processing of the anonymised data collected for the purposes of this study only and not for any other purposes.</li><li>All data are collected and stored in accordance with the provisions of the General Data Protection Regulations and the Data Protection Act 2018. If you are concerned about how the data is being processed, please contact UCL in the first instance at data-protection@ucl.ac.uk</li></ul><p>If you would like to contact the Principal Investigator in the study to discuss this research, please e-mail <a href=""mailto:r.breheny@ucl.ac.uk"">r.breheny@ucl.ac.uk</a>.</p><p>&nbsp;</p></div>",,,,,,,,,,,23134,1,html-button-response,
54,Condition 1,0.0-2.0, ,,,,,,,,,,14834,"In this experiment, you will see several scenes and answer questions about them. On each slide, you will see one scene and several relevant images. Please distribute 10 coins across the likely images based on the conversation in the scene.<br>Note: You are not required to assign coins to every image, so please distribute the coins only among the likely images.<br>The experiment is conducted in fullscreen mode. When you're ready to begin, please press the space bar.",,,,,,,,,,,37969,2,html-keyboard-response,
54,Condition 1,0.0-3.0,,,,,,,,,,,2619,,True,,,,,,,,,,41597,3,fullscreen,
54,Condition 1,0.0-4.0,0,,,,,,,,,,14823,"<p>The experiment is divided into three parts. In the first part, you will see a similar scene as the one presented below. In each scene, the person on the left is waiting for some hot water for a cup of tea and asks the waiter whether the water is ready. The waiter checks the temperature on the thermometer and then gives a relevant response.</p><div><img src=""./visual stimuli-exp/temperature/visualized_temperature_context/visualized_warm.png"" height = ""450""></div>",,,,,,,,,,,56422,4,html-button-response,
54,Condition 1,0.0-5.0-0.0,,0,0,0,4,4,2,0,0,0,73596,"<div><img src=""./visual stimuli-exp/temperature/visualized_temperature_context/visualized_warm.png"" height = ""270""></div><p style=""margin: 8px 0px;"">Which thermometer do you think is showing the temperature of the water in the cup? Use the ""+"" and ""&ndash;"" buttons to distribute 10 coins across the likely thermometers.</p>",,./visual stimuli-exp/temperature/adjusted_temperature/10.png,./visual stimuli-exp/temperature/adjusted_temperature/20.png,./visual stimuli-exp/temperature/adjusted_temperature/30.png,./visual stimuli-exp/temperature/adjusted_temperature/40.png,./visual stimuli-exp/temperature/adjusted_temperature/50.png,./visual stimuli-exp/temperature/adjusted_temperature/60.png,./visual stimuli-exp/temperature/adjusted_temperature/70.png,./visual stimuli-exp/temperature/adjusted_temperature/80.png,./visual stimuli-exp/temperature/adjusted_temperature/90.png,130027,5,html-coin-betting-response,
54,Condition 1,0.0-5.0-0.1,,0,0,0,0,3,3,3,1,0,33291,"<div><img src=""./visual stimuli-exp/temperature/visualized_temperature_context/visualized_hot.png"" height = ""270""></div><p style=""margin: 8px 0px;"">Which thermometer do you think is showing the temperature of the water in the cup? Use the ""+"" and ""&ndash;"" buttons to distribute 10 coins across the likely thermometers.</p>",,./visual stimuli-exp/temperature/adjusted_temperature/10.png,./visual stimuli-exp/temperature/adjusted_temperature/20.png,./visual stimuli-exp/temperature/adjusted_temperature/30.png,./visual stimuli-exp/temperature/adjusted_temperature/40.png,./visual stimuli-exp/temperature/adjusted_temperature/50.png,./visual stimuli-exp/temperature/adjusted_temperature/60.png,./visual stimuli-exp/temperature/adjusted_temperature/70.png,./visual stimuli-exp/temperature/adjusted_temperature/80.png,./visual stimuli-exp/temperature/adjusted_temperature/90.png,163323,6,html-coin-betting-response,
54,Condition 1,0.0-5.0-0.2,,0,0,0,0,0,0,4,4,2,25997,"<div><img src=""./visual stimuli-exp/temperature/visualized_temperature_context/visualized_scalding.png"" height = ""270""></div><p style=""margin: 8px 0px;"">Which thermometer do you think is showing the temperature of the water in the cup? Use the ""+"" and ""&ndash;"" buttons to distribute 10 coins across the likely thermometers.</p>",,./visual stimuli-exp/temperature/adjusted_temperature/10.png,./visual stimuli-exp/temperature/adjusted_temperature/20.png,./visual stimuli-exp/temperature/adjusted_temperature/30.png,./visual stimuli-exp/temperature/adjusted_temperature/40.png,./visual stimuli-exp/temperature/adjusted_temperature/50.png,./visual stimuli-exp/temperature/adjusted_temperature/60.png,./visual stimuli-exp/temperature/adjusted_temperature/70.png,./visual stimuli-exp/temperature/adjusted_temperature/80.png,./visual stimuli-exp/temperature/adjusted_temperature/90.png,189323,7,html-coin-betting-response,
54,Condition 1,0.0-5.0-0.3,,0,0,0,1,3,4,2,0,0,24867,"<div><img src=""./visual stimuli-exp/temperature/visualized_temperature_context/visualized_hot.png"" height = ""270""></div><p style=""margin: 8px 0px;"">Which thermometer do you think is showing the temperature of the water in the cup? Use the ""+"" and ""&ndash;"" buttons to distribute 10 coins across the likely thermometers.</p>",,./visual stimuli-exp/temperature/adjusted_temperature/10.png,./visual stimuli-exp/temperature/adjusted_temperature/20.png,./visual stimuli-exp/temperature/adjusted_temperature/30.png,./visual stimuli-exp/temperature/adjusted_temperature/40.png,./visual stimuli-exp/temperature/adjusted_temperature/50.png,./visual stimuli-exp/temperature/adjusted_temperature/60.png,./visual stimuli-exp/temperature/adjusted_temperature/70.png,./visual stimuli-exp/temperature/adjusted_temperature/80.png,./visual stimuli-exp/temperature/adjusted_temperature/90.png,214196,8,html-coin-betting-response,
54,Condition 1,0.0-5.0-0.4,,0,0,0,0,0,1,3,4,2,20788,"<div><img src=""./visual stimuli-exp/temperature/visualized_temperature_context/visualized_scalding.png"" height = ""270""></div><p style=""margin: 8px 0px;"">Which thermometer do you think is showing the temperature of the water in the cup? Use the ""+"" and ""&ndash;"" buttons to distribute 10 coins across the likely thermometers.</p>",,./visual stimuli-exp/temperature/adjusted_temperature/10.png,./visual stimuli-exp/temperature/adjusted_temperature/20.png,./visual stimuli-exp/temperature/adjusted_temperature/30.png,./visual stimuli-exp/temperature/adjusted_temperature/40.png,./visual stimuli-exp/temperature/adjusted_temperature/50.png,./visual stimuli-exp/temperature/adjusted_temperature/60.png,./visual stimuli-exp/temperature/adjusted_temperature/70.png,./visual stimuli-exp/temperature/adjusted_temperature/80.png,./visual stimuli-exp/temperature/adjusted_temperature/90.png,234987,9,html-coin-betting-response,
54,Condition 1,0.0-5.0-0.5,,0,0,0,2,7,1,0,0,0,19957,"<div><img src=""./visual stimuli-exp/temperature/visualized_temperature_context/visualized_warm.png"" height = ""270""></div><p style=""margin: 8px 0px;"">Which thermometer do you think is showing the temperature of the water in the cup? Use the ""+"" and ""&ndash;"" buttons to distribute 10 coins across the likely thermometers.</p>",,./visual stimuli-exp/temperature/adjusted_temperature/10.png,./visual stimuli-exp/temperature/adjusted_temperature/20.png,./visual stimuli-exp/temperature/adjusted_temperature/30.png,./visual stimuli-exp/temperature/adjusted_temperature/40.png,./visual stimuli-exp/temperature/adjusted_temperature/50.png,./visual stimuli-exp/temperature/adjusted_temperature/60.png,./visual stimuli-exp/temperature/adjusted_temperature/70.png,./visual stimuli-exp/temperature/adjusted_temperature/80.png,./visual stimuli-exp/temperature/adjusted_temperature/90.png,254947,10,html-coin-betting-response,
54,Condition 1,0.0-6.0,0,,,,,,,,,,22439,"<p>Congratulations! You have completed the first part. In the second part, you will see scenes similar to the one presented below. In each scene, the boy on the left is wondering about Jack's academic performance but he hasn't seen any of Jack's test results. The girl on the right answers his question based on Jack's most recent test results, which are shown in the middle.</p><div><img src='./visual stimuli-exp/grades/visualized_grades_context/visualized_good.png' height = '450'></div>",,,,,,,,,,,277388,11,html-button-response,
54,Condition 1,0.0-7.0-0.0,,0,0,0,0,0,0,0,0,10,23477,"<div><img src=""./visual stimuli-exp/grades/visualized_grades_context/visualized_perfect.png"" height = ""330""></div><p style=""margin: 8px 0px;"">Which examination sheet do you think is on the desk? Use the ""+"" and ""&ndash;"" buttons to distribute 10 coins across the likely examination sheets.</p>",,./visual stimuli-exp/grades/adjusted_grades/30_wrong.png,./visual stimuli-exp/grades/adjusted_grades/13_wrong.png,./visual stimuli-exp/grades/adjusted_grades/11_wrong.png,./visual stimuli-exp/grades/adjusted_grades/9_wrong.png,./visual stimuli-exp/grades/adjusted_grades/7_wrong.png,./visual stimuli-exp/grades/adjusted_grades/5_wrong.png,./visual stimuli-exp/grades/adjusted_grades/3_wrong.png,./visual stimuli-exp/grades/adjusted_grades/1_wrong.png,./visual stimuli-exp/grades/adjusted_grades/0_wrong.png,300867,12,html-coin-betting-response,
54,Condition 1,0.0-7.0-0.1,,0,0,0,0,0,0,1,5,4,17516,"<div><img src=""./visual stimuli-exp/grades/visualized_grades_context/visualized_excellent.png"" height = ""330""></div><p style=""margin: 8px 0px;"">Which examination sheet do you think is on the desk? Use the ""+"" and ""&ndash;"" buttons to distribute 10 coins across the likely examination sheets.</p>",,./visual stimuli-exp/grades/adjusted_grades/30_wrong.png,./visual stimuli-exp/grades/adjusted_grades/13_wrong.png,./visual stimuli-exp/grades/adjusted_grades/11_wrong.png,./visual stimuli-exp/grades/adjusted_grades/9_wrong.png,./visual stimuli-exp/grades/adjusted_grades/7_wrong.png,./visual stimuli-exp/grades/adjusted_grades/5_wrong.png,./visual stimuli-exp/grades/adjusted_grades/3_wrong.png,./visual stimuli-exp/grades/adjusted_grades/1_wrong.png,./visual stimuli-exp/grades/adjusted_grades/0_wrong.png,318387,13,html-coin-betting-response,
54,Condition 1,0.0-7.0-0.2,,0,0,0,0,2,2,5,1,0,23037,"<div><img src=""./visual stimuli-exp/grades/visualized_grades_context/visualized_good.png"" height = ""330""></div><p style=""margin: 8px 0px;"">Which examination sheet do you think is on the desk? Use the ""+"" and ""&ndash;"" buttons to distribute 10 coins across the likely examination sheets.</p>",,./visual stimuli-exp/grades/adjusted_grades/30_wrong.png,./visual stimuli-exp/grades/adjusted_grades/13_wrong.png,./visual stimuli-exp/grades/adjusted_grades/11_wrong.png,./visual stimuli-exp/grades/adjusted_grades/9_wrong.png,./visual stimuli-exp/grades/adjusted_grades/7_wrong.png,./visual stimuli-exp/grades/adjusted_grades/5_wrong.png,./visual stimuli-exp/grades/adjusted_grades/3_wrong.png,./visual stimuli-exp/grades/adjusted_grades/1_wrong.png,./visual stimuli-exp/grades/adjusted_grades/0_wrong.png,341427,14,html-coin-betting-response,
54,Condition 1,0.0-7.0-0.3,,0,0,0,0,0,0,0,0,10,10509,"<div><img src=""./visual stimuli-exp/grades/visualized_grades_context/visualized_perfect.png"" height = ""330""></div><p style=""margin: 8px 0px;"">Which examination sheet do you think is on the desk? Use the ""+"" and ""&ndash;"" buttons to distribute 10 coins across the likely examination sheets.</p>",,./visual stimuli-exp/grades/adjusted_grades/30_wrong.png,./visual stimuli-exp/grades/adjusted_grades/13_wrong.png,./visual stimuli-exp/grades/adjusted_grades/11_wrong.png,./visual stimuli-exp/grades/adjusted_grades/9_wrong.png,./visual stimuli-exp/grades/adjusted_grades/7_wrong.png,./visual stimuli-exp/grades/adjusted_grades/5_wrong.png,./visual stimuli-exp/grades/adjusted_grades/3_wrong.png,./visual stimuli-exp/grades/adjusted_grades/1_wrong.png,./visual stimuli-exp/grades/adjusted_grades/0_wrong.png,351939,15,html-coin-betting-response,
54,Condition 1,0.0-7.0-0.4,,0,0,0,0,0,4,5,1,0,15053,"<div><img src=""./visual stimuli-exp/grades/visualized_grades_context/visualized_good.png"" height = ""330""></div><p style=""margin: 8px 0px;"">Which examination sheet do you think is on the desk? Use the ""+"" and ""&ndash;"" buttons to distribute 10 coins across the likely examination sheets.</p>",,./visual stimuli-exp/grades/adjusted_grades/30_wrong.png,./visual stimuli-exp/grades/adjusted_grades/13_wrong.png,./visual stimuli-exp/grades/adjusted_grades/11_wrong.png,./visual stimuli-exp/grades/adjusted_grades/9_wrong.png,./visual stimuli-exp/grades/adjusted_grades/7_wrong.png,./visual stimuli-exp/grades/adjusted_grades/5_wrong.png,./visual stimuli-exp/grades/adjusted_grades/3_wrong.png,./visual stimuli-exp/grades/adjusted_grades/1_wrong.png,./visual stimuli-exp/grades/adjusted_grades/0_wrong.png,366995,16,html-coin-betting-response,
54,Condition 1,0.0-7.0-0.5,,0,0,0,0,0,0,0,4,6,18542,"<div><img src=""./visual stimuli-exp/grades/visualized_grades_context/visualized_excellent.png"" height = ""330""></div><p style=""margin: 8px 0px;"">Which examination sheet do you think is on the desk? Use the ""+"" and ""&ndash;"" buttons to distribute 10 coins across the likely examination sheets.</p>",,./visual stimuli-exp/grades/adjusted_grades/30_wrong.png,./visual stimuli-exp/grades/adjusted_grades/13_wrong.png,./visual stimuli-exp/grades/adjusted_grades/11_wrong.png,./visual stimuli-exp/grades/adjusted_grades/9_wrong.png,./visual stimuli-exp/grades/adjusted_grades/7_wrong.png,./visual stimuli-exp/grades/adjusted_grades/5_wrong.png,./visual stimuli-exp/grades/adjusted_grades/3_wrong.png,./visual stimuli-exp/grades/adjusted_grades/1_wrong.png,./visual stimuli-exp/grades/adjusted_grades/0_wrong.png,385540,17,html-coin-betting-response,
54,Condition 1,0.0-8.0,0,,,,,,,,,,20165,"<p>Congratulations! You have completed the second task. In the third part, you will see scenes similar to the one presented below. In each scene, the woman on the left is managing several buildings and needs to know whether the windows of one of the buildings need to be cleaned. She calls her colleague who works in that building to ask him about the state of the windows. The man gives a relevant answer after checking the cleanliness of the windows.</p><div><img src='./visual stimuli-exp/clean/visualized_cleaness_context/visualized_cleanish.png' height = '450'></div>",,,,,,,,,,,405707,18,html-button-response,
54,Condition 1,0.0-9.0-0.0,,0,0,0,0,0,0,0,0,10,13621,"<div><img src=""./visual stimuli-exp/clean/visualized_cleaness_context/visualized_spotless.png"" height = ""310""></div><p style=""margin: 8px 0px;"">Which window do you think the man is looking at? Use the ""+"" and ""&ndash;"" buttons to distribute 10 coins across the likely windows.</p>",,./visual stimuli-exp/clean/adjusted_cleaness/100-dirty.png,./visual stimuli-exp/clean/adjusted_cleaness/60-dirty-with-spots.png,./visual stimuli-exp/clean/adjusted_cleaness/45-dirty-with-spots.png,./visual stimuli-exp/clean/adjusted_cleaness/30-clean.png,./visual stimuli-exp/clean/adjusted_cleaness/15-clean.png,./visual stimuli-exp/clean/adjusted_cleaness/0-clean-spotless.png,./visual stimuli-exp/clean/adjusted_cleaness/0-spotless.png,./visual stimuli-exp/clean/adjusted_cleaness/0-spotless-light-2.png,./visual stimuli-exp/clean/adjusted_cleaness/0-spotless-light-4.png,419331,19,html-coin-betting-response,
54,Condition 1,0.0-9.0-0.1,,0,0,0,0,0,2,4,3,1,25173,"<div><img src=""./visual stimuli-exp/clean/visualized_cleaness_context/visualized_clean.png"" height = ""310""></div><p style=""margin: 8px 0px;"">Which window do you think the man is looking at? Use the ""+"" and ""&ndash;"" buttons to distribute 10 coins across the likely windows.</p>",,./visual stimuli-exp/clean/adjusted_cleaness/100-dirty.png,./visual stimuli-exp/clean/adjusted_cleaness/60-dirty-with-spots.png,./visual stimuli-exp/clean/adjusted_cleaness/45-dirty-with-spots.png,./visual stimuli-exp/clean/adjusted_cleaness/30-clean.png,./visual stimuli-exp/clean/adjusted_cleaness/15-clean.png,./visual stimuli-exp/clean/adjusted_cleaness/0-clean-spotless.png,./visual stimuli-exp/clean/adjusted_cleaness/0-spotless.png,./visual stimuli-exp/clean/adjusted_cleaness/0-spotless-light-2.png,./visual stimuli-exp/clean/adjusted_cleaness/0-spotless-light-4.png,444507,20,html-coin-betting-response,
54,Condition 1,0.0-9.0-0.2,,0,0,0,2,6,2,0,0,0,16277,"<div><img src=""./visual stimuli-exp/clean/visualized_cleaness_context/visualized_cleanish.png"" height = ""310""></div><p style=""margin: 8px 0px;"">Which window do you think the man is looking at? Use the ""+"" and ""&ndash;"" buttons to distribute 10 coins across the likely windows.</p>",,./visual stimuli-exp/clean/adjusted_cleaness/100-dirty.png,./visual stimuli-exp/clean/adjusted_cleaness/60-dirty-with-spots.png,./visual stimuli-exp/clean/adjusted_cleaness/45-dirty-with-spots.png,./visual stimuli-exp/clean/adjusted_cleaness/30-clean.png,./visual stimuli-exp/clean/adjusted_cleaness/15-clean.png,./visual stimuli-exp/clean/adjusted_cleaness/0-clean-spotless.png,./visual stimuli-exp/clean/adjusted_cleaness/0-spotless.png,./visual stimuli-exp/clean/adjusted_cleaness/0-spotless-light-2.png,./visual stimuli-exp/clean/adjusted_cleaness/0-spotless-light-4.png,460787,21,html-coin-betting-response,
54,Condition 1,0.0-9.0-0.3,,0,0,0,0,0,0,6,4,0,19061,"<div><img src=""./visual stimuli-exp/clean/visualized_cleaness_context/visualized_clean.png"" height = ""310""></div><p style=""margin: 8px 0px;"">Which window do you think the man is looking at? Use the ""+"" and ""&ndash;"" buttons to distribute 10 coins across the likely windows.</p>",,./visual stimuli-exp/clean/adjusted_cleaness/100-dirty.png,./visual stimuli-exp/clean/adjusted_cleaness/60-dirty-with-spots.png,./visual stimuli-exp/clean/adjusted_cleaness/45-dirty-with-spots.png,./visual stimuli-exp/clean/adjusted_cleaness/30-clean.png,./visual stimuli-exp/clean/adjusted_cleaness/15-clean.png,./visual stimuli-exp/clean/adjusted_cleaness/0-clean-spotless.png,./visual stimuli-exp/clean/adjusted_cleaness/0-spotless.png,./visual stimuli-exp/clean/adjusted_cleaness/0-spotless-light-2.png,./visual stimuli-exp/clean/adjusted_cleaness/0-spotless-light-4.png,479852,22,html-coin-betting-response,
54,Condition 1,0.0-9.0-0.4,,0,0,0,0,0,0,0,0,10,6708,"<div><img src=""./visual stimuli-exp/clean/visualized_cleaness_context/visualized_spotless.png"" height = ""310""></div><p style=""margin: 8px 0px;"">Which window do you think the man is looking at? Use the ""+"" and ""&ndash;"" buttons to distribute 10 coins across the likely windows.</p>",,./visual stimuli-exp/clean/adjusted_cleaness/100-dirty.png,./visual stimuli-exp/clean/adjusted_cleaness/60-dirty-with-spots.png,./visual stimuli-exp/clean/adjusted_cleaness/45-dirty-with-spots.png,./visual stimuli-exp/clean/adjusted_cleaness/30-clean.png,./visual stimuli-exp/clean/adjusted_cleaness/15-clean.png,./visual stimuli-exp/clean/adjusted_cleaness/0-clean-spotless.png,./visual stimuli-exp/clean/adjusted_cleaness/0-spotless.png,./visual stimuli-exp/clean/adjusted_cleaness/0-spotless-light-2.png,./visual stimuli-exp/clean/adjusted_cleaness/0-spotless-light-4.png,486564,23,html-coin-betting-response,
54,Condition 1,0.0-9.0-0.5,,0,0,0,0,0,6,4,0,0,13244,"<div><img src=""./visual stimuli-exp/clean/visualized_cleaness_context/visualized_cleanish.png"" height = ""310""></div><p style=""margin: 8px 0px;"">Which window do you think the man is looking at? Use the ""+"" and ""&ndash;"" buttons to distribute 10 coins across the likely windows.</p>",,./visual stimuli-exp/clean/adjusted_cleaness/100-dirty.png,./visual stimuli-exp/clean/adjusted_cleaness/60-dirty-with-spots.png,./visual stimuli-exp/clean/adjusted_cleaness/45-dirty-with-spots.png,./visual stimuli-exp/clean/adjusted_cleaness/30-clean.png,./visual stimuli-exp/clean/adjusted_cleaness/15-clean.png,./visual stimuli-exp/clean/adjusted_cleaness/0-clean-spotless.png,./visual stimuli-exp/clean/adjusted_cleaness/0-spotless.png,./visual stimuli-exp/clean/adjusted_cleaness/0-spotless-light-2.png,./visual stimuli-exp/clean/adjusted_cleaness/0-spotless-light-4.png,499811,24,html-coin-betting-response,
54,Condition 1,0.0-10.0,,,,,,,,,,,,,True,,,,,,,,,,500819,25,fullscreen,
54,Condition 1,0.0-11.0,"{'Comment': 'I did not experience any difficulties, everything worked well. Thank you'}",,,,,,,,,,27107,,,,,,,,,,,,528048,26,survey-text,
54,Condition 1,0.0-12.0,,,,,,,,,,,,"<p style = ""font-size: 25px;"">Thank you for your participation.<br>This is the end of the experiment and you will now be redirected to Prolific.</p>",,,,,,,,,,,530062,27,html-keyboard-response,
35,Condition 1,0.0-0.0,1,,,,,,,,,,52248,"<div class=""consent-form""><p><img src=""consent_header.png""></p><p style=""text-align:center;font-weight:bold;"">ONLINE INFORMATION SHEET</p><p><strong>Title of Project</strong>: The cognitive basis of pragmatic inferences</p><p>This study has been approved by the RD Ethics Chair as LING-2021-01-21</p><p>&nbsp;</p><p><strong>Name, Address and Contact Details of Principal Investigator:</strong></p><p>Richard Breheny (<a href=""mailto:r.breheny@ucl.ac.uk"">r.breheny@ucl.ac.uk</a>)<br>UCL Linguistics<br>Division of Psychology and Language Sciences<br>Chandler House<br>2 Wakefield Street<br>London WC1N 1PF</p><p>&nbsp;</p><p><strong>Other investigators:</strong></p><p>Sebastian Schuster, Bokun Li</p><p>&nbsp;</p><p>We would like to invite you to participate in this research project. You should only participate if you want to. Choosing not to take part will not disadvantage you in any way. Before you decide whether you want to take part, please read the following information carefully. Please contact us if there is anything that is not clear or if you would like more information (<a href=""mailto:s.schuster@ucl.ac.uk"">s.schuster@ucl.ac.uk</a>).</p><p>&nbsp;</p><p><strong>Details of Study</strong></p><p>This study forms part of a research project under the supervision of Professor Richard Breheny in the Linguistics Department of the UCL Division of Psychology and Language Sciences which looks at how people process language. The study addresses the question of how people read more into communication than the actual words say. We will record participants' responses and responses may be timed.</p><p>&nbsp;</p><p><strong>Possible risks and benefits</strong></p><p>The testing session will take approximately <strong>8 minutes</strong> (including breaks). You are free to withdraw from the experiment at any time.  Once you have completed the experiment, you will be redirected to the recruitment platform you used to access our study, and you will be compensated for your time.</p><p>It is up to you to decide whether or not to take part. If you do decide to take part, you will be asked to provide an informed consent. Even after agreeing to take part, you can still withdraw at any time and without giving a reason.</p><p>All data are collected and stored in accordance with the provisions of the General Data Protection Regulations and the Data Protection Act 2018.</p><p>&nbsp;</p></div>",,,,,,,,,,,52261,0,html-button-response,
35,Condition 1,0.0-1.0,1,,,,,,,,,,26944,"<div class=""consent-form""><p><img src=""consent_header.png""></p><p style=""text-align:center;font-weight:bold;"">ONLINE CONSENT FORM</p><p><strong>Title of Project</strong>: The cognitive basis of pragmatic inferences</p><p>This study forms part of a research project under the supervision of Professor Richard Breheny in the Linguistics Department of the UCL Division of Psychology and Language Sciences. This study has been approved by the RD Ethics Chair as LING-2021-01-21</p><p>Please read the following information carefully:</p><ul><li>You have read and understood the information sheet explaining the project, risks and benefits.</li><li>You understand that you have the right to withdraw at any point during the study, for any reason, and without any prejudice.</li><li>You understand that you must not participate if you suffer from photosensitive epilepsy.</li><li>You consent to the processing of the anonymised data collected for the purposes of this study only and not for any other purposes.</li><li>You consent to the processing of the anonymised data collected for the purposes of this study only and not for any other purposes.</li><li>All data are collected and stored in accordance with the provisions of the General Data Protection Regulations and the Data Protection Act 2018. If you are concerned about how the data is being processed, please contact UCL in the first instance at data-protection@ucl.ac.uk</li></ul><p>If you would like to contact the Principal Investigator in the study to discuss this research, please e-mail <a href=""mailto:r.breheny@ucl.ac.uk"">r.breheny@ucl.ac.uk</a>.</p><p>&nbsp;</p></div>",,,,,,,,,,,79208,1,html-button-response,
35,Condition 1,0.0-2.0, ,,,,,,,,,,20442,"In this experiment, you will see several scenes and answer questions about them. On each slide, you will see one scene and several relevant images. Please distribute 10 coins across the likely images based on the conversation in the scene.<br>Note: You are not required to assign coins to every image, so please distribute the coins only among the likely images.<br>The experiment is conducted in fullscreen mode. When you're ready to begin, please press the space bar.",,,,,,,,,,,99653,2,html-keyboard-response,
35,Condition 1,0.0-3.0,,,,,,,,,,,2648,,True,,,,,,,,,,103310,3,fullscreen,
35,Condition 1,0.0-4.0,0,,,,,,,,,,39346,"<p>The experiment is divided into three parts. In the first part, you will see a similar scene as the one presented below. In each scene, the person on the left is waiting for some hot water for a cup of tea and asks the waiter whether the water is ready. The waiter checks the temperature on the thermometer and then gives a relevant response.</p><div><img src=""./visual stimuli-exp/temperature/visualized_temperature_context/visualized_warm.png"" height = ""450""></div>",,,,,,,,,,,142656,4,html-button-response,
35,Condition 1,0.0-5.0-0.0,,0,0,0,1,5,4,0,0,0,41833,"<div><img src=""./visual stimuli-exp/temperature/visualized_temperature_context/visualized_scalding.png"" height = ""270""></div><p style=""margin: 8px 0px;"">Which thermometer do you think is showing the temperature of the water in the cup? Use the ""+"" and ""&ndash;"" buttons to distribute 10 coins across the likely thermometers.</p>",,./visual stimuli-exp/temperature/adjusted_temperature/10.png,./visual stimuli-exp/temperature/adjusted_temperature/20.png,./visual stimuli-exp/temperature/adjusted_temperature/30.png,./visual stimuli-exp/temperature/adjusted_temperature/40.png,./visual stimuli-exp/temperature/adjusted_temperature/50.png,./visual stimuli-exp/temperature/adjusted_temperature/60.png,./visual stimuli-exp/temperature/adjusted_temperature/70.png,./visual stimuli-exp/temperature/adjusted_temperature/80.png,./visual stimuli-exp/temperature/adjusted_temperature/90.png,184490,5,html-coin-betting-response,
35,Condition 1,0.0-5.0-0.1,,0,0,0,0,0,0,0,2,8,10094,"<div><img src=""./visual stimuli-exp/temperature/visualized_temperature_context/visualized_hot.png"" height = ""270""></div><p style=""margin: 8px 0px;"">Which thermometer do you think is showing the temperature of the water in the cup? Use the ""+"" and ""&ndash;"" buttons to distribute 10 coins across the likely thermometers.</p>",,./visual stimuli-exp/temperature/adjusted_temperature/10.png,./visual stimuli-exp/temperature/adjusted_temperature/20.png,./visual stimuli-exp/temperature/adjusted_temperature/30.png,./visual stimuli-exp/temperature/adjusted_temperature/40.png,./visual stimuli-exp/temperature/adjusted_temperature/50.png,./visual stimuli-exp/temperature/adjusted_temperature/60.png,./visual stimuli-exp/temperature/adjusted_temperature/70.png,./visual stimuli-exp/temperature/adjusted_temperature/80.png,./visual stimuli-exp/temperature/adjusted_temperature/90.png,194591,6,html-coin-betting-response,
35,Condition 1,0.0-5.0-0.2,,0,0,5,5,0,0,0,0,0,9445,"<div><img src=""./visual stimuli-exp/temperature/visualized_temperature_context/visualized_warm.png"" height = ""270""></div><p style=""margin: 8px 0px;"">Which thermometer do you think is showing the temperature of the water in the cup? Use the ""+"" and ""&ndash;"" buttons to distribute 10 coins across the likely thermometers.</p>",,./visual stimuli-exp/temperature/adjusted_temperature/10.png,./visual stimuli-exp/temperature/adjusted_temperature/20.png,./visual stimuli-exp/temperature/adjusted_temperature/30.png,./visual stimuli-exp/temperature/adjusted_temperature/40.png,./visual stimuli-exp/temperature/adjusted_temperature/50.png,./visual stimuli-exp/temperature/adjusted_temperature/60.png,./visual stimuli-exp/temperature/adjusted_temperature/70.png,./visual stimuli-exp/temperature/adjusted_temperature/80.png,./visual stimuli-exp/temperature/adjusted_temperature/90.png,204040,7,html-coin-betting-response,
35,Condition 1,0.0-5.0-0.3,,0,0,0,10,0,0,0,0,0,6373,"<div><img src=""./visual stimuli-exp/temperature/visualized_temperature_context/visualized_warm.png"" height = ""270""></div><p style=""margin: 8px 0px;"">Which thermometer do you think is showing the temperature of the water in the cup? Use the ""+"" and ""&ndash;"" buttons to distribute 10 coins across the likely thermometers.</p>",,./visual stimuli-exp/temperature/adjusted_temperature/10.png,./visual stimuli-exp/temperature/adjusted_temperature/20.png,./visual stimuli-exp/temperature/adjusted_temperature/30.png,./visual stimuli-exp/temperature/adjusted_temperature/40.png,./visual stimuli-exp/temperature/adjusted_temperature/50.png,./visual stimuli-exp/temperature/adjusted_temperature/60.png,./visual stimuli-exp/temperature/adjusted_temperature/70.png,./visual stimuli-exp/temperature/adjusted_temperature/80.png,./visual stimuli-exp/temperature/adjusted_temperature/90.png,210418,8,html-coin-betting-response,
35,Condition 1,0.0-5.0-0.4,,0,0,0,0,0,0,0,0,10,7505,"<div><img src=""./visual stimuli-exp/temperature/visualized_temperature_context/visualized_hot.png"" height = ""270""></div><p style=""margin: 8px 0px;"">Which thermometer do you think is showing the temperature of the water in the cup? Use the ""+"" and ""&ndash;"" buttons to distribute 10 coins across the likely thermometers.</p>",,./visual stimuli-exp/temperature/adjusted_temperature/10.png,./visual stimuli-exp/temperature/adjusted_temperature/20.png,./visual stimuli-exp/temperature/adjusted_temperature/30.png,./visual stimuli-exp/temperature/adjusted_temperature/40.png,./visual stimuli-exp/temperature/adjusted_temperature/50.png,./visual stimuli-exp/temperature/adjusted_temperature/60.png,./visual stimuli-exp/temperature/adjusted_temperature/70.png,./visual stimuli-exp/temperature/adjusted_temperature/80.png,./visual stimuli-exp/temperature/adjusted_temperature/90.png,217928,9,html-coin-betting-response,
35,Condition 1,0.0-5.0-0.5,,0,0,0,10,0,0,0,0,0,8219,"<div><img src=""./visual stimuli-exp/temperature/visualized_temperature_context/visualized_scalding.png"" height = ""270""></div><p style=""margin: 8px 0px;"">Which thermometer do you think is showing the temperature of the water in the cup? Use the ""+"" and ""&ndash;"" buttons to distribute 10 coins across the likely thermometers.</p>",,./visual stimuli-exp/temperature/adjusted_temperature/10.png,./visual stimuli-exp/temperature/adjusted_temperature/20.png,./visual stimuli-exp/temperature/adjusted_temperature/30.png,./visual stimuli-exp/temperature/adjusted_temperature/40.png,./visual stimuli-exp/temperature/adjusted_temperature/50.png,./visual stimuli-exp/temperature/adjusted_temperature/60.png,./visual stimuli-exp/temperature/adjusted_temperature/70.png,./visual stimuli-exp/temperature/adjusted_temperature/80.png,./visual stimuli-exp/temperature/adjusted_temperature/90.png,226150,10,html-coin-betting-response,
35,Condition 1,0.0-6.0,0,,,,,,,,,,23365,"<p>Congratulations! You have completed the first part. In the second part, you will see scenes similar to the one presented below. In each scene, the boy on the left is wondering about Jack's academic performance but he hasn't seen any of Jack's test results. The girl on the right answers his question based on Jack's most recent test results, which are shown in the middle.</p><div><img src='./visual stimuli-exp/grades/visualized_grades_context/visualized_good.png' height = '450'></div>",,,,,,,,,,,249521,11,html-button-response,
35,Condition 1,0.0-7.0-0.0,,0,0,0,0,0,10,0,0,0,12131,"<div><img src=""./visual stimuli-exp/grades/visualized_grades_context/visualized_good.png"" height = ""330""></div><p style=""margin: 8px 0px;"">Which examination sheet do you think is on the desk? Use the ""+"" and ""&ndash;"" buttons to distribute 10 coins across the likely examination sheets.</p>",,./visual stimuli-exp/grades/adjusted_grades/30_wrong.png,./visual stimuli-exp/grades/adjusted_grades/13_wrong.png,./visual stimuli-exp/grades/adjusted_grades/11_wrong.png,./visual stimuli-exp/grades/adjusted_grades/9_wrong.png,./visual stimuli-exp/grades/adjusted_grades/7_wrong.png,./visual stimuli-exp/grades/adjusted_grades/5_wrong.png,./visual stimuli-exp/grades/adjusted_grades/3_wrong.png,./visual stimuli-exp/grades/adjusted_grades/1_wrong.png,./visual stimuli-exp/grades/adjusted_grades/0_wrong.png,261656,12,html-coin-betting-response,
35,Condition 1,0.0-7.0-0.1,,0,0,0,0,0,0,0,2,8,8022,"<div><img src=""./visual stimuli-exp/grades/visualized_grades_context/visualized_perfect.png"" height = ""330""></div><p style=""margin: 8px 0px;"">Which examination sheet do you think is on the desk? Use the ""+"" and ""&ndash;"" buttons to distribute 10 coins across the likely examination sheets.</p>",,./visual stimuli-exp/grades/adjusted_grades/30_wrong.png,./visual stimuli-exp/grades/adjusted_grades/13_wrong.png,./visual stimuli-exp/grades/adjusted_grades/11_wrong.png,./visual stimuli-exp/grades/adjusted_grades/9_wrong.png,./visual stimuli-exp/grades/adjusted_grades/7_wrong.png,./visual stimuli-exp/grades/adjusted_grades/5_wrong.png,./visual stimuli-exp/grades/adjusted_grades/3_wrong.png,./visual stimuli-exp/grades/adjusted_grades/1_wrong.png,./visual stimuli-exp/grades/adjusted_grades/0_wrong.png,269681,13,html-coin-betting-response,
35,Condition 1,0.0-7.0-0.2,,0,0,0,0,0,0,3,7,0,7460,"<div><img src=""./visual stimuli-exp/grades/visualized_grades_context/visualized_excellent.png"" height = ""330""></div><p style=""margin: 8px 0px;"">Which examination sheet do you think is on the desk? Use the ""+"" and ""&ndash;"" buttons to distribute 10 coins across the likely examination sheets.</p>",,./visual stimuli-exp/grades/adjusted_grades/30_wrong.png,./visual stimuli-exp/grades/adjusted_grades/13_wrong.png,./visual stimuli-exp/grades/adjusted_grades/11_wrong.png,./visual stimuli-exp/grades/adjusted_grades/9_wrong.png,./visual stimuli-exp/grades/adjusted_grades/7_wrong.png,./visual stimuli-exp/grades/adjusted_grades/5_wrong.png,./visual stimuli-exp/grades/adjusted_grades/3_wrong.png,./visual stimuli-exp/grades/adjusted_grades/1_wrong.png,./visual stimuli-exp/grades/adjusted_grades/0_wrong.png,277145,14,html-coin-betting-response,
35,Condition 1,0.0-7.0-0.3,,0,0,0,0,0,0,2,8,0,7597,"<div><img src=""./visual stimuli-exp/grades/visualized_grades_context/visualized_excellent.png"" height = ""330""></div><p style=""margin: 8px 0px;"">Which examination sheet do you think is on the desk? Use the ""+"" and ""&ndash;"" buttons to distribute 10 coins across the likely examination sheets.</p>",,./visual stimuli-exp/grades/adjusted_grades/30_wrong.png,./visual stimuli-exp/grades/adjusted_grades/13_wrong.png,./visual stimuli-exp/grades/adjusted_grades/11_wrong.png,./visual stimuli-exp/grades/adjusted_grades/9_wrong.png,./visual stimuli-exp/grades/adjusted_grades/7_wrong.png,./visual stimuli-exp/grades/adjusted_grades/5_wrong.png,./visual stimuli-exp/grades/adjusted_grades/3_wrong.png,./visual stimuli-exp/grades/adjusted_grades/1_wrong.png,./visual stimuli-exp/grades/adjusted_grades/0_wrong.png,284747,15,html-coin-betting-response,
35,Condition 1,0.0-7.0-0.4,,0,0,0,0,0,0,0,1,9,9889,"<div><img src=""./visual stimuli-exp/grades/visualized_grades_context/visualized_perfect.png"" height = ""330""></div><p style=""margin: 8px 0px;"">Which examination sheet do you think is on the desk? Use the ""+"" and ""&ndash;"" buttons to distribute 10 coins across the likely examination sheets.</p>",,./visual stimuli-exp/grades/adjusted_grades/30_wrong.png,./visual stimuli-exp/grades/adjusted_grades/13_wrong.png,./visual stimuli-exp/grades/adjusted_grades/11_wrong.png,./visual stimuli-exp/grades/adjusted_grades/9_wrong.png,./visual stimuli-exp/grades/adjusted_grades/7_wrong.png,./visual stimuli-exp/grades/adjusted_grades/5_wrong.png,./visual stimuli-exp/grades/adjusted_grades/3_wrong.png,./visual stimuli-exp/grades/adjusted_grades/1_wrong.png,./visual stimuli-exp/grades/adjusted_grades/0_wrong.png,294639,16,html-coin-betting-response,
35,Condition 1,0.0-7.0-0.5,,0,0,0,0,1,2,7,0,0,17011,"<div><img src=""./visual stimuli-exp/grades/visualized_grades_context/visualized_good.png"" height = ""330""></div><p style=""margin: 8px 0px;"">Which examination sheet do you think is on the desk? Use the ""+"" and ""&ndash;"" buttons to distribute 10 coins across the likely examination sheets.</p>",,./visual stimuli-exp/grades/adjusted_grades/30_wrong.png,./visual stimuli-exp/grades/adjusted_grades/13_wrong.png,./visual stimuli-exp/grades/adjusted_grades/11_wrong.png,./visual stimuli-exp/grades/adjusted_grades/9_wrong.png,./visual stimuli-exp/grades/adjusted_grades/7_wrong.png,./visual stimuli-exp/grades/adjusted_grades/5_wrong.png,./visual stimuli-exp/grades/adjusted_grades/3_wrong.png,./visual stimuli-exp/grades/adjusted_grades/1_wrong.png,./visual stimuli-exp/grades/adjusted_grades/0_wrong.png,311654,17,html-coin-betting-response,
35,Condition 1,0.0-8.0,0,,,,,,,,,,19326,"<p>Congratulations! You have completed the second task. In the third part, you will see scenes similar to the one presented below. In each scene, the woman on the left is managing several buildings and needs to know whether the windows of one of the buildings need to be cleaned. She calls her colleague who works in that building to ask him about the state of the windows. The man gives a relevant answer after checking the cleanliness of the windows.</p><div><img src='./visual stimuli-exp/clean/visualized_cleaness_context/visualized_cleanish.png' height = '450'></div>",,,,,,,,,,,330981,18,html-button-response,
35,Condition 1,0.0-9.0-0.0,,0,0,0,0,0,0,0,1,9,10441,"<div><img src=""./visual stimuli-exp/clean/visualized_cleaness_context/visualized_spotless.png"" height = ""310""></div><p style=""margin: 8px 0px;"">Which window do you think the man is looking at? Use the ""+"" and ""&ndash;"" buttons to distribute 10 coins across the likely windows.</p>",,./visual stimuli-exp/clean/adjusted_cleaness/100-dirty.png,./visual stimuli-exp/clean/adjusted_cleaness/60-dirty-with-spots.png,./visual stimuli-exp/clean/adjusted_cleaness/45-dirty-with-spots.png,./visual stimuli-exp/clean/adjusted_cleaness/30-clean.png,./visual stimuli-exp/clean/adjusted_cleaness/15-clean.png,./visual stimuli-exp/clean/adjusted_cleaness/0-clean-spotless.png,./visual stimuli-exp/clean/adjusted_cleaness/0-spotless.png,./visual stimuli-exp/clean/adjusted_cleaness/0-spotless-light-2.png,./visual stimuli-exp/clean/adjusted_cleaness/0-spotless-light-4.png,341425,19,html-coin-betting-response,
35,Condition 1,0.0-9.0-0.1,,0,0,0,1,9,0,0,0,0,8226,"<div><img src=""./visual stimuli-exp/clean/visualized_cleaness_context/visualized_cleanish.png"" height = ""310""></div><p style=""margin: 8px 0px;"">Which window do you think the man is looking at? Use the ""+"" and ""&ndash;"" buttons to distribute 10 coins across the likely windows.</p>",,./visual stimuli-exp/clean/adjusted_cleaness/100-dirty.png,./visual stimuli-exp/clean/adjusted_cleaness/60-dirty-with-spots.png,./visual stimuli-exp/clean/adjusted_cleaness/45-dirty-with-spots.png,./visual stimuli-exp/clean/adjusted_cleaness/30-clean.png,./visual stimuli-exp/clean/adjusted_cleaness/15-clean.png,./visual stimuli-exp/clean/adjusted_cleaness/0-clean-spotless.png,./visual stimuli-exp/clean/adjusted_cleaness/0-spotless.png,./visual stimuli-exp/clean/adjusted_cleaness/0-spotless-light-2.png,./visual stimuli-exp/clean/adjusted_cleaness/0-spotless-light-4.png,349656,20,html-coin-betting-response,
35,Condition 1,0.0-9.0-0.2,,0,0,0,0,1,9,0,0,0,6053,"<div><img src=""./visual stimuli-exp/clean/visualized_cleaness_context/visualized_clean.png"" height = ""310""></div><p style=""margin: 8px 0px;"">Which window do you think the man is looking at? Use the ""+"" and ""&ndash;"" buttons to distribute 10 coins across the likely windows.</p>",,./visual stimuli-exp/clean/adjusted_cleaness/100-dirty.png,./visual stimuli-exp/clean/adjusted_cleaness/60-dirty-with-spots.png,./visual stimuli-exp/clean/adjusted_cleaness/45-dirty-with-spots.png,./visual stimuli-exp/clean/adjusted_cleaness/30-clean.png,./visual stimuli-exp/clean/adjusted_cleaness/15-clean.png,./visual stimuli-exp/clean/adjusted_cleaness/0-clean-spotless.png,./visual stimuli-exp/clean/adjusted_cleaness/0-spotless.png,./visual stimuli-exp/clean/adjusted_cleaness/0-spotless-light-2.png,./visual stimuli-exp/clean/adjusted_cleaness/0-spotless-light-4.png,355713,21,html-coin-betting-response,
35,Condition 1,0.0-9.0-0.3,,0,0,0,1,9,0,0,0,0,5364,"<div><img src=""./visual stimuli-exp/clean/visualized_cleaness_context/visualized_cleanish.png"" height = ""310""></div><p style=""margin: 8px 0px;"">Which window do you think the man is looking at? Use the ""+"" and ""&ndash;"" buttons to distribute 10 coins across the likely windows.</p>",,./visual stimuli-exp/clean/adjusted_cleaness/100-dirty.png,./visual stimuli-exp/clean/adjusted_cleaness/60-dirty-with-spots.png,./visual stimuli-exp/clean/adjusted_cleaness/45-dirty-with-spots.png,./visual stimuli-exp/clean/adjusted_cleaness/30-clean.png,./visual stimuli-exp/clean/adjusted_cleaness/15-clean.png,./visual stimuli-exp/clean/adjusted_cleaness/0-clean-spotless.png,./visual stimuli-exp/clean/adjusted_cleaness/0-spotless.png,./visual stimuli-exp/clean/adjusted_cleaness/0-spotless-light-2.png,./visual stimuli-exp/clean/adjusted_cleaness/0-spotless-light-4.png,361081,22,html-coin-betting-response,
35,Condition 1,0.0-9.0-0.4,,0,0,0,0,1,9,0,0,0,4445,"<div><img src=""./visual stimuli-exp/clean/visualized_cleaness_context/visualized_clean.png"" height = ""310""></div><p style=""margin: 8px 0px;"">Which window do you think the man is looking at? Use the ""+"" and ""&ndash;"" buttons to distribute 10 coins across the likely windows.</p>",,./visual stimuli-exp/clean/adjusted_cleaness/100-dirty.png,./visual stimuli-exp/clean/adjusted_cleaness/60-dirty-with-spots.png,./visual stimuli-exp/clean/adjusted_cleaness/45-dirty-with-spots.png,./visual stimuli-exp/clean/adjusted_cleaness/30-clean.png,./visual stimuli-exp/clean/adjusted_cleaness/15-clean.png,./visual stimuli-exp/clean/adjusted_cleaness/0-clean-spotless.png,./visual stimuli-exp/clean/adjusted_cleaness/0-spotless.png,./visual stimuli-exp/clean/adjusted_cleaness/0-spotless-light-2.png,./visual stimuli-exp/clean/adjusted_cleaness/0-spotless-light-4.png,365530,23,html-coin-betting-response,
35,Condition 1,0.0-9.0-0.5,,0,0,0,0,0,0,0,0,10,5866,"<div><img src=""./visual stimuli-exp/clean/visualized_cleaness_context/visualized_spotless.png"" height = ""310""></div><p style=""margin: 8px 0px;"">Which window do you think the man is looking at? Use the ""+"" and ""&ndash;"" buttons to distribute 10 coins across the likely windows.</p>",,./visual stimuli-exp/clean/adjusted_cleaness/100-dirty.png,./visual stimuli-exp/clean/adjusted_cleaness/60-dirty-with-spots.png,./visual stimuli-exp/clean/adjusted_cleaness/45-dirty-with-spots.png,./visual stimuli-exp/clean/adjusted_cleaness/30-clean.png,./visual stimuli-exp/clean/adjusted_cleaness/15-clean.png,./visual stimuli-exp/clean/adjusted_cleaness/0-clean-spotless.png,./visual stimuli-exp/clean/adjusted_cleaness/0-spotless.png,./visual stimuli-exp/clean/adjusted_cleaness/0-spotless-light-2.png,./visual stimuli-exp/clean/adjusted_cleaness/0-spotless-light-4.png,371399,24,html-coin-betting-response,
35,Condition 1,0.0-10.0,,,,,,,,,,,,,True,,,,,,,,,,372403,25,fullscreen,
35,Condition 1,0.0-11.0,{'Comment': ''},,,,,,,,,,3684,,,,,,,,,,,,376105,26,survey-text,
35,Condition 1,0.0-12.0,,,,,,,,,,,,"<p style = ""font-size: 25px;"">Thank you for your participation.<br>This is the end of the experiment and you will now be redirected to Prolific.</p>",,,,,,,,,,,378117,27,html-keyboard-response,
40,Condition 1,0.0-0.0,1,,,,,,,,,,4326,"<div class=""consent-form""><p><img src=""consent_header.png""></p><p style=""text-align:center;font-weight:bold;"">ONLINE INFORMATION SHEET</p><p><strong>Title of Project</strong>: The cognitive basis of pragmatic inferences</p><p>This study has been approved by the RD Ethics Chair as LING-2021-01-21</p><p>&nbsp;</p><p><strong>Name, Address and Contact Details of Principal Investigator:</strong></p><p>Richard Breheny (<a href=""mailto:r.breheny@ucl.ac.uk"">r.breheny@ucl.ac.uk</a>)<br>UCL Linguistics<br>Division of Psychology and Language Sciences<br>Chandler House<br>2 Wakefield Street<br>London WC1N 1PF</p><p>&nbsp;</p><p><strong>Other investigators:</strong></p><p>Sebastian Schuster, Bokun Li</p><p>&nbsp;</p><p>We would like to invite you to participate in this research project. You should only participate if you want to. Choosing not to take part will not disadvantage you in any way. Before you decide whether you want to take part, please read the following information carefully. Please contact us if there is anything that is not clear or if you would like more information (<a href=""mailto:s.schuster@ucl.ac.uk"">s.schuster@ucl.ac.uk</a>).</p><p>&nbsp;</p><p><strong>Details of Study</strong></p><p>This study forms part of a research project under the supervision of Professor Richard Breheny in the Linguistics Department of the UCL Division of Psychology and Language Sciences which looks at how people process language. The study addresses the question of how people read more into communication than the actual words say. We will record participants' responses and responses may be timed.</p><p>&nbsp;</p><p><strong>Possible risks and benefits</strong></p><p>The testing session will take approximately <strong>8 minutes</strong> (including breaks). You are free to withdraw from the experiment at any time.  Once you have completed the experiment, you will be redirected to the recruitment platform you used to access our study, and you will be compensated for your time.</p><p>It is up to you to decide whether or not to take part. If you do decide to take part, you will be asked to provide an informed consent. Even after agreeing to take part, you can still withdraw at any time and without giving a reason.</p><p>All data are collected and stored in accordance with the provisions of the General Data Protection Regulations and the Data Protection Act 2018.</p><p>&nbsp;</p></div>",,,,,,,,,,,4340,0,html-button-response,
40,Condition 1,0.0-1.0,1,,,,,,,,,,3587,"<div class=""consent-form""><p><img src=""consent_header.png""></p><p style=""text-align:center;font-weight:bold;"">ONLINE CONSENT FORM</p><p><strong>Title of Project</strong>: The cognitive basis of pragmatic inferences</p><p>This study forms part of a research project under the supervision of Professor Richard Breheny in the Linguistics Department of the UCL Division of Psychology and Language Sciences. This study has been approved by the RD Ethics Chair as LING-2021-01-21</p><p>Please read the following information carefully:</p><ul><li>You have read and understood the information sheet explaining the project, risks and benefits.</li><li>You understand that you have the right to withdraw at any point during the study, for any reason, and without any prejudice.</li><li>You understand that you must not participate if you suffer from photosensitive epilepsy.</li><li>You consent to the processing of the anonymised data collected for the purposes of this study only and not for any other purposes.</li><li>You consent to the processing of the anonymised data collected for the purposes of this study only and not for any other purposes.</li><li>All data are collected and stored in accordance with the provisions of the General Data Protection Regulations and the Data Protection Act 2018. If you are concerned about how the data is being processed, please contact UCL in the first instance at data-protection@ucl.ac.uk</li></ul><p>If you would like to contact the Principal Investigator in the study to discuss this research, please e-mail <a href=""mailto:r.breheny@ucl.ac.uk"">r.breheny@ucl.ac.uk</a>.</p><p>&nbsp;</p></div>",,,,,,,,,,,7929,1,html-button-response,
40,Condition 1,0.0-2.0, ,,,,,,,,,,17198,"In this experiment, you will see several scenes and answer questions about them. On each slide, you will see one scene and several relevant images. Please distribute 10 coins across the likely images based on the conversation in the scene.<br>Note: You are not required to assign coins to every image, so please distribute the coins only among the likely images.<br>The experiment is conducted in fullscreen mode. When you're ready to begin, please press the space bar.",,,,,,,,,,,25128,2,html-keyboard-response,
40,Condition 1,0.0-3.0,,,,,,,,,,,1672,,True,,,,,,,,,,27806,3,fullscreen,
40,Condition 1,0.0-4.0,0,,,,,,,,,,22053,"<p>The experiment is divided into three parts. In the first part, you will see a similar scene as the one presented below. In each scene, the person on the left is waiting for some hot water for a cup of tea and asks the waiter whether the water is ready. The waiter checks the temperature on the thermometer and then gives a relevant response.</p><div><img src=""./visual stimuli-exp/temperature/visualized_temperature_context/visualized_warm.png"" height = ""450""></div>",,,,,,,,,,,49862,4,html-button-response,
40,Condition 1,0.0-5.0-0.0,,0,0,0,0,0,0,3,3,4,70719,"<div><img src=""./visual stimuli-exp/temperature/visualized_temperature_context/visualized_hot.png"" height = ""270""></div><p style=""margin: 8px 0px;"">Which thermometer do you think is showing the temperature of the water in the cup? Use the ""+"" and ""&ndash;"" buttons to distribute 10 coins across the likely thermometers.</p>",,./visual stimuli-exp/temperature/adjusted_temperature/10.png,./visual stimuli-exp/temperature/adjusted_temperature/20.png,./visual stimuli-exp/temperature/adjusted_temperature/30.png,./visual stimuli-exp/temperature/adjusted_temperature/40.png,./visual stimuli-exp/temperature/adjusted_temperature/50.png,./visual stimuli-exp/temperature/adjusted_temperature/60.png,./visual stimuli-exp/temperature/adjusted_temperature/70.png,./visual stimuli-exp/temperature/adjusted_temperature/80.png,./visual stimuli-exp/temperature/adjusted_temperature/90.png,120583,5,html-coin-betting-response,
40,Condition 1,0.0-5.0-0.1,,0,0,0,0,4,4,2,0,0,21963,"<div><img src=""./visual stimuli-exp/temperature/visualized_temperature_context/visualized_warm.png"" height = ""270""></div><p style=""margin: 8px 0px;"">Which thermometer do you think is showing the temperature of the water in the cup? Use the ""+"" and ""&ndash;"" buttons to distribute 10 coins across the likely thermometers.</p>",,./visual stimuli-exp/temperature/adjusted_temperature/10.png,./visual stimuli-exp/temperature/adjusted_temperature/20.png,./visual stimuli-exp/temperature/adjusted_temperature/30.png,./visual stimuli-exp/temperature/adjusted_temperature/40.png,./visual stimuli-exp/temperature/adjusted_temperature/50.png,./visual stimuli-exp/temperature/adjusted_temperature/60.png,./visual stimuli-exp/temperature/adjusted_temperature/70.png,./visual stimuli-exp/temperature/adjusted_temperature/80.png,./visual stimuli-exp/temperature/adjusted_temperature/90.png,142550,6,html-coin-betting-response,
40,Condition 1,0.0-5.0-0.2,,0,0,0,0,0,0,0,4,6,16661,"<div><img src=""./visual stimuli-exp/temperature/visualized_temperature_context/visualized_scalding.png"" height = ""270""></div><p style=""margin: 8px 0px;"">Which thermometer do you think is showing the temperature of the water in the cup? Use the ""+"" and ""&ndash;"" buttons to distribute 10 coins across the likely thermometers.</p>",,./visual stimuli-exp/temperature/adjusted_temperature/10.png,./visual stimuli-exp/temperature/adjusted_temperature/20.png,./visual stimuli-exp/temperature/adjusted_temperature/30.png,./visual stimuli-exp/temperature/adjusted_temperature/40.png,./visual stimuli-exp/temperature/adjusted_temperature/50.png,./visual stimuli-exp/temperature/adjusted_temperature/60.png,./visual stimuli-exp/temperature/adjusted_temperature/70.png,./visual stimuli-exp/temperature/adjusted_temperature/80.png,./visual stimuli-exp/temperature/adjusted_temperature/90.png,159215,7,html-coin-betting-response,
40,Condition 1,0.0-5.0-0.3,,0,0,0,0,0,0,4,6,0,27606,"<div><img src=""./visual stimuli-exp/temperature/visualized_temperature_context/visualized_hot.png"" height = ""270""></div><p style=""margin: 8px 0px;"">Which thermometer do you think is showing the temperature of the water in the cup? Use the ""+"" and ""&ndash;"" buttons to distribute 10 coins across the likely thermometers.</p>",,./visual stimuli-exp/temperature/adjusted_temperature/10.png,./visual stimuli-exp/temperature/adjusted_temperature/20.png,./visual stimuli-exp/temperature/adjusted_temperature/30.png,./visual stimuli-exp/temperature/adjusted_temperature/40.png,./visual stimuli-exp/temperature/adjusted_temperature/50.png,./visual stimuli-exp/temperature/adjusted_temperature/60.png,./visual stimuli-exp/temperature/adjusted_temperature/70.png,./visual stimuli-exp/temperature/adjusted_temperature/80.png,./visual stimuli-exp/temperature/adjusted_temperature/90.png,186824,8,html-coin-betting-response,
40,Condition 1,0.0-5.0-0.4,,0,0,0,0,0,0,0,4,6,15641,"<div><img src=""./visual stimuli-exp/temperature/visualized_temperature_context/visualized_scalding.png"" height = ""270""></div><p style=""margin: 8px 0px;"">Which thermometer do you think is showing the temperature of the water in the cup? Use the ""+"" and ""&ndash;"" buttons to distribute 10 coins across the likely thermometers.</p>",,./visual stimuli-exp/temperature/adjusted_temperature/10.png,./visual stimuli-exp/temperature/adjusted_temperature/20.png,./visual stimuli-exp/temperature/adjusted_temperature/30.png,./visual stimuli-exp/temperature/adjusted_temperature/40.png,./visual stimuli-exp/temperature/adjusted_temperature/50.png,./visual stimuli-exp/temperature/adjusted_temperature/60.png,./visual stimuli-exp/temperature/adjusted_temperature/70.png,./visual stimuli-exp/temperature/adjusted_temperature/80.png,./visual stimuli-exp/temperature/adjusted_temperature/90.png,202468,9,html-coin-betting-response,
40,Condition 1,0.0-5.0-0.5,,0,0,0,1,5,4,0,0,0,16734,"<div><img src=""./visual stimuli-exp/temperature/visualized_temperature_context/visualized_warm.png"" height = ""270""></div><p style=""margin: 8px 0px;"">Which thermometer do you think is showing the temperature of the water in the cup? Use the ""+"" and ""&ndash;"" buttons to distribute 10 coins across the likely thermometers.</p>",,./visual stimuli-exp/temperature/adjusted_temperature/10.png,./visual stimuli-exp/temperature/adjusted_temperature/20.png,./visual stimuli-exp/temperature/adjusted_temperature/30.png,./visual stimuli-exp/temperature/adjusted_temperature/40.png,./visual stimuli-exp/temperature/adjusted_temperature/50.png,./visual stimuli-exp/temperature/adjusted_temperature/60.png,./visual stimuli-exp/temperature/adjusted_temperature/70.png,./visual stimuli-exp/temperature/adjusted_temperature/80.png,./visual stimuli-exp/temperature/adjusted_temperature/90.png,219204,10,html-coin-betting-response,
40,Condition 1,0.0-6.0,0,,,,,,,,,,17795,"<p>Congratulations! You have completed the first part. In the second part, you will see scenes similar to the one presented below. In each scene, the boy on the left is wondering about Jack's academic performance but he hasn't seen any of Jack's test results. The girl on the right answers his question based on Jack's most recent test results, which are shown in the middle.</p><div><img src='./visual stimuli-exp/grades/visualized_grades_context/visualized_good.png' height = '450'></div>",,,,,,,,,,,237000,11,html-button-response,
40,Condition 1,0.0-7.0-0.0,,0,0,0,0,0,0,2,3,5,24671,"<div><img src=""./visual stimuli-exp/grades/visualized_grades_context/visualized_perfect.png"" height = ""330""></div><p style=""margin: 8px 0px;"">Which examination sheet do you think is on the desk? Use the ""+"" and ""&ndash;"" buttons to distribute 10 coins across the likely examination sheets.</p>",,./visual stimuli-exp/grades/adjusted_grades/30_wrong.png,./visual stimuli-exp/grades/adjusted_grades/13_wrong.png,./visual stimuli-exp/grades/adjusted_grades/11_wrong.png,./visual stimuli-exp/grades/adjusted_grades/9_wrong.png,./visual stimuli-exp/grades/adjusted_grades/7_wrong.png,./visual stimuli-exp/grades/adjusted_grades/5_wrong.png,./visual stimuli-exp/grades/adjusted_grades/3_wrong.png,./visual stimuli-exp/grades/adjusted_grades/1_wrong.png,./visual stimuli-exp/grades/adjusted_grades/0_wrong.png,261672,12,html-coin-betting-response,
40,Condition 1,0.0-7.0-0.1,,0,0,0,0,0,0,2,4,4,13039,"<div><img src=""./visual stimuli-exp/grades/visualized_grades_context/visualized_excellent.png"" height = ""330""></div><p style=""margin: 8px 0px;"">Which examination sheet do you think is on the desk? Use the ""+"" and ""&ndash;"" buttons to distribute 10 coins across the likely examination sheets.</p>",,./visual stimuli-exp/grades/adjusted_grades/30_wrong.png,./visual stimuli-exp/grades/adjusted_grades/13_wrong.png,./visual stimuli-exp/grades/adjusted_grades/11_wrong.png,./visual stimuli-exp/grades/adjusted_grades/9_wrong.png,./visual stimuli-exp/grades/adjusted_grades/7_wrong.png,./visual stimuli-exp/grades/adjusted_grades/5_wrong.png,./visual stimuli-exp/grades/adjusted_grades/3_wrong.png,./visual stimuli-exp/grades/adjusted_grades/1_wrong.png,./visual stimuli-exp/grades/adjusted_grades/0_wrong.png,274715,13,html-coin-betting-response,
40,Condition 1,0.0-7.0-0.2,,0,0,0,0,0,4,4,2,0,15307,"<div><img src=""./visual stimuli-exp/grades/visualized_grades_context/visualized_good.png"" height = ""330""></div><p style=""margin: 8px 0px;"">Which examination sheet do you think is on the desk? Use the ""+"" and ""&ndash;"" buttons to distribute 10 coins across the likely examination sheets.</p>",,./visual stimuli-exp/grades/adjusted_grades/30_wrong.png,./visual stimuli-exp/grades/adjusted_grades/13_wrong.png,./visual stimuli-exp/grades/adjusted_grades/11_wrong.png,./visual stimuli-exp/grades/adjusted_grades/9_wrong.png,./visual stimuli-exp/grades/adjusted_grades/7_wrong.png,./visual stimuli-exp/grades/adjusted_grades/5_wrong.png,./visual stimuli-exp/grades/adjusted_grades/3_wrong.png,./visual stimuli-exp/grades/adjusted_grades/1_wrong.png,./visual stimuli-exp/grades/adjusted_grades/0_wrong.png,290026,14,html-coin-betting-response,
40,Condition 1,0.0-7.0-0.3,,0,0,0,0,0,5,4,1,0,13601,"<div><img src=""./visual stimuli-exp/grades/visualized_grades_context/visualized_good.png"" height = ""330""></div><p style=""margin: 8px 0px;"">Which examination sheet do you think is on the desk? Use the ""+"" and ""&ndash;"" buttons to distribute 10 coins across the likely examination sheets.</p>",,./visual stimuli-exp/grades/adjusted_grades/30_wrong.png,./visual stimuli-exp/grades/adjusted_grades/13_wrong.png,./visual stimuli-exp/grades/adjusted_grades/11_wrong.png,./visual stimuli-exp/grades/adjusted_grades/9_wrong.png,./visual stimuli-exp/grades/adjusted_grades/7_wrong.png,./visual stimuli-exp/grades/adjusted_grades/5_wrong.png,./visual stimuli-exp/grades/adjusted_grades/3_wrong.png,./visual stimuli-exp/grades/adjusted_grades/1_wrong.png,./visual stimuli-exp/grades/adjusted_grades/0_wrong.png,303630,15,html-coin-betting-response,
40,Condition 1,0.0-7.0-0.4,,0,0,0,0,0,0,0,4,6,13804,"<div><img src=""./visual stimuli-exp/grades/visualized_grades_context/visualized_perfect.png"" height = ""330""></div><p style=""margin: 8px 0px;"">Which examination sheet do you think is on the desk? Use the ""+"" and ""&ndash;"" buttons to distribute 10 coins across the likely examination sheets.</p>",,./visual stimuli-exp/grades/adjusted_grades/30_wrong.png,./visual stimuli-exp/grades/adjusted_grades/13_wrong.png,./visual stimuli-exp/grades/adjusted_grades/11_wrong.png,./visual stimuli-exp/grades/adjusted_grades/9_wrong.png,./visual stimuli-exp/grades/adjusted_grades/7_wrong.png,./visual stimuli-exp/grades/adjusted_grades/5_wrong.png,./visual stimuli-exp/grades/adjusted_grades/3_wrong.png,./visual stimuli-exp/grades/adjusted_grades/1_wrong.png,./visual stimuli-exp/grades/adjusted_grades/0_wrong.png,317436,16,html-coin-betting-response,
40,Condition 1,0.0-7.0-0.5,,0,0,0,0,0,0,2,4,4,14452,"<div><img src=""./visual stimuli-exp/grades/visualized_grades_context/visualized_excellent.png"" height = ""330""></div><p style=""margin: 8px 0px;"">Which examination sheet do you think is on the desk? Use the ""+"" and ""&ndash;"" buttons to distribute 10 coins across the likely examination sheets.</p>",,./visual stimuli-exp/grades/adjusted_grades/30_wrong.png,./visual stimuli-exp/grades/adjusted_grades/13_wrong.png,./visual stimuli-exp/grades/adjusted_grades/11_wrong.png,./visual stimuli-exp/grades/adjusted_grades/9_wrong.png,./visual stimuli-exp/grades/adjusted_grades/7_wrong.png,./visual stimuli-exp/grades/adjusted_grades/5_wrong.png,./visual stimuli-exp/grades/adjusted_grades/3_wrong.png,./visual stimuli-exp/grades/adjusted_grades/1_wrong.png,./visual stimuli-exp/grades/adjusted_grades/0_wrong.png,331891,17,html-coin-betting-response,
40,Condition 1,0.0-8.0,0,,,,,,,,,,15703,"<p>Congratulations! You have completed the second task. In the third part, you will see scenes similar to the one presented below. In each scene, the woman on the left is managing several buildings and needs to know whether the windows of one of the buildings need to be cleaned. She calls her colleague who works in that building to ask him about the state of the windows. The man gives a relevant answer after checking the cleanliness of the windows.</p><div><img src='./visual stimuli-exp/clean/visualized_cleaness_context/visualized_cleanish.png' height = '450'></div>",,,,,,,,,,,347595,18,html-button-response,
40,Condition 1,0.0-9.0-0.0,,0,0,0,0,3,4,3,0,0,24483,"<div><img src=""./visual stimuli-exp/clean/visualized_cleaness_context/visualized_clean.png"" height = ""310""></div><p style=""margin: 8px 0px;"">Which window do you think the man is looking at? Use the ""+"" and ""&ndash;"" buttons to distribute 10 coins across the likely windows.</p>",,./visual stimuli-exp/clean/adjusted_cleaness/100-dirty.png,./visual stimuli-exp/clean/adjusted_cleaness/60-dirty-with-spots.png,./visual stimuli-exp/clean/adjusted_cleaness/45-dirty-with-spots.png,./visual stimuli-exp/clean/adjusted_cleaness/30-clean.png,./visual stimuli-exp/clean/adjusted_cleaness/15-clean.png,./visual stimuli-exp/clean/adjusted_cleaness/0-clean-spotless.png,./visual stimuli-exp/clean/adjusted_cleaness/0-spotless.png,./visual stimuli-exp/clean/adjusted_cleaness/0-spotless-light-2.png,./visual stimuli-exp/clean/adjusted_cleaness/0-spotless-light-4.png,372079,19,html-coin-betting-response,
40,Condition 1,0.0-9.0-0.1,,0,0,0,0,0,0,0,4,6,9415,"<div><img src=""./visual stimuli-exp/clean/visualized_cleaness_context/visualized_spotless.png"" height = ""310""></div><p style=""margin: 8px 0px;"">Which window do you think the man is looking at? Use the ""+"" and ""&ndash;"" buttons to distribute 10 coins across the likely windows.</p>",,./visual stimuli-exp/clean/adjusted_cleaness/100-dirty.png,./visual stimuli-exp/clean/adjusted_cleaness/60-dirty-with-spots.png,./visual stimuli-exp/clean/adjusted_cleaness/45-dirty-with-spots.png,./visual stimuli-exp/clean/adjusted_cleaness/30-clean.png,./visual stimuli-exp/clean/adjusted_cleaness/15-clean.png,./visual stimuli-exp/clean/adjusted_cleaness/0-clean-spotless.png,./visual stimuli-exp/clean/adjusted_cleaness/0-spotless.png,./visual stimuli-exp/clean/adjusted_cleaness/0-spotless-light-2.png,./visual stimuli-exp/clean/adjusted_cleaness/0-spotless-light-4.png,381498,20,html-coin-betting-response,
40,Condition 1,0.0-9.0-0.2,,0,0,6,4,0,0,0,0,0,13876,"<div><img src=""./visual stimuli-exp/clean/visualized_cleaness_context/visualized_cleanish.png"" height = ""310""></div><p style=""margin: 8px 0px;"">Which window do you think the man is looking at? Use the ""+"" and ""&ndash;"" buttons to distribute 10 coins across the likely windows.</p>",,./visual stimuli-exp/clean/adjusted_cleaness/100-dirty.png,./visual stimuli-exp/clean/adjusted_cleaness/60-dirty-with-spots.png,./visual stimuli-exp/clean/adjusted_cleaness/45-dirty-with-spots.png,./visual stimuli-exp/clean/adjusted_cleaness/30-clean.png,./visual stimuli-exp/clean/adjusted_cleaness/15-clean.png,./visual stimuli-exp/clean/adjusted_cleaness/0-clean-spotless.png,./visual stimuli-exp/clean/adjusted_cleaness/0-spotless.png,./visual stimuli-exp/clean/adjusted_cleaness/0-spotless-light-2.png,./visual stimuli-exp/clean/adjusted_cleaness/0-spotless-light-4.png,395378,21,html-coin-betting-response,
40,Condition 1,0.0-9.0-0.3,,0,0,0,0,0,0,0,4,6,9146,"<div><img src=""./visual stimuli-exp/clean/visualized_cleaness_context/visualized_spotless.png"" height = ""310""></div><p style=""margin: 8px 0px;"">Which window do you think the man is looking at? Use the ""+"" and ""&ndash;"" buttons to distribute 10 coins across the likely windows.</p>",,./visual stimuli-exp/clean/adjusted_cleaness/100-dirty.png,./visual stimuli-exp/clean/adjusted_cleaness/60-dirty-with-spots.png,./visual stimuli-exp/clean/adjusted_cleaness/45-dirty-with-spots.png,./visual stimuli-exp/clean/adjusted_cleaness/30-clean.png,./visual stimuli-exp/clean/adjusted_cleaness/15-clean.png,./visual stimuli-exp/clean/adjusted_cleaness/0-clean-spotless.png,./visual stimuli-exp/clean/adjusted_cleaness/0-spotless.png,./visual stimuli-exp/clean/adjusted_cleaness/0-spotless-light-2.png,./visual stimuli-exp/clean/adjusted_cleaness/0-spotless-light-4.png,404526,22,html-coin-betting-response,
40,Condition 1,0.0-9.0-0.4,,0,1,6,3,0,0,0,0,0,11328,"<div><img src=""./visual stimuli-exp/clean/visualized_cleaness_context/visualized_cleanish.png"" height = ""310""></div><p style=""margin: 8px 0px;"">Which window do you think the man is looking at? Use the ""+"" and ""&ndash;"" buttons to distribute 10 coins across the likely windows.</p>",,./visual stimuli-exp/clean/adjusted_cleaness/100-dirty.png,./visual stimuli-exp/clean/adjusted_cleaness/60-dirty-with-spots.png,./visual stimuli-exp/clean/adjusted_cleaness/45-dirty-with-spots.png,./visual stimuli-exp/clean/adjusted_cleaness/30-clean.png,./visual stimuli-exp/clean/adjusted_cleaness/15-clean.png,./visual stimuli-exp/clean/adjusted_cleaness/0-clean-spotless.png,./visual stimuli-exp/clean/adjusted_cleaness/0-spotless.png,./visual stimuli-exp/clean/adjusted_cleaness/0-spotless-light-2.png,./visual stimuli-exp/clean/adjusted_cleaness/0-spotless-light-4.png,415856,23,html-coin-betting-response,
40,Condition 1,0.0-9.0-0.5,,0,0,0,1,5,4,0,0,0,12742,"<div><img src=""./visual stimuli-exp/clean/visualized_cleaness_context/visualized_clean.png"" height = ""310""></div><p style=""margin: 8px 0px;"">Which window do you think the man is looking at? Use the ""+"" and ""&ndash;"" buttons to distribute 10 coins across the likely windows.</p>",,./visual stimuli-exp/clean/adjusted_cleaness/100-dirty.png,./visual stimuli-exp/clean/adjusted_cleaness/60-dirty-with-spots.png,./visual stimuli-exp/clean/adjusted_cleaness/45-dirty-with-spots.png,./visual stimuli-exp/clean/adjusted_cleaness/30-clean.png,./visual stimuli-exp/clean/adjusted_cleaness/15-clean.png,./visual stimuli-exp/clean/adjusted_cleaness/0-clean-spotless.png,./visual stimuli-exp/clean/adjusted_cleaness/0-spotless.png,./visual stimuli-exp/clean/adjusted_cleaness/0-spotless-light-2.png,./visual stimuli-exp/clean/adjusted_cleaness/0-spotless-light-4.png,428602,24,html-coin-betting-response,
40,Condition 1,0.0-10.0,,,,,,,,,,,,,True,,,,,,,,,,429630,25,fullscreen,
40,Condition 1,0.0-11.0,{'Comment': ''},,,,,,,,,,3484,,,,,,,,,,,,433314,26,survey-text,
40,Condition 1,0.0-12.0,,,,,,,,,,,,"<p style = ""font-size: 25px;"">Thank you for your participation.<br>This is the end of the experiment and you will now be redirected to Prolific.</p>",,,,,,,,,,,435366,27,html-keyboard-response,
60,Condition 1,0.0-0.0,1,,,,,,,,,,4028,"<div class=""consent-form""><p><img src=""consent_header.png""></p><p style=""text-align:center;font-weight:bold;"">ONLINE INFORMATION SHEET</p><p><strong>Title of Project</strong>: The cognitive basis of pragmatic inferences</p><p>This study has been approved by the RD Ethics Chair as LING-2021-01-21</p><p>&nbsp;</p><p><strong>Name, Address and Contact Details of Principal Investigator:</strong></p><p>Richard Breheny (<a href=""mailto:r.breheny@ucl.ac.uk"">r.breheny@ucl.ac.uk</a>)<br>UCL Linguistics<br>Division of Psychology and Language Sciences<br>Chandler House<br>2 Wakefield Street<br>London WC1N 1PF</p><p>&nbsp;</p><p><strong>Other investigators:</strong></p><p>Sebastian Schuster, Bokun Li</p><p>&nbsp;</p><p>We would like to invite you to participate in this research project. You should only participate if you want to. Choosing not to take part will not disadvantage you in any way. Before you decide whether you want to take part, please read the following information carefully. Please contact us if there is anything that is not clear or if you would like more information (<a href=""mailto:s.schuster@ucl.ac.uk"">s.schuster@ucl.ac.uk</a>).</p><p>&nbsp;</p><p><strong>Details of Study</strong></p><p>This study forms part of a research project under the supervision of Professor Richard Breheny in the Linguistics Department of the UCL Division of Psychology and Language Sciences which looks at how people process language. The study addresses the question of how people read more into communication than the actual words say. We will record participants' responses and responses may be timed.</p><p>&nbsp;</p><p><strong>Possible risks and benefits</strong></p><p>The testing session will take approximately <strong>8 minutes</strong> (including breaks). You are free to withdraw from the experiment at any time.  Once you have completed the experiment, you will be redirected to the recruitment platform you used to access our study, and you will be compensated for your time.</p><p>It is up to you to decide whether or not to take part. If you do decide to take part, you will be asked to provide an informed consent. Even after agreeing to take part, you can still withdraw at any time and without giving a reason.</p><p>All data are collected and stored in accordance with the provisions of the General Data Protection Regulations and the Data Protection Act 2018.</p><p>&nbsp;</p></div>",,,,,,,,,,,4037,0,html-button-response,
